%time,field.header.seq,field.header.stamp,field.header.frame_id,field.orientation.x,field.orientation.y,field.orientation.z,field.orientation.w,field.orientation_covariance0,field.orientation_covariance1,field.orientation_covariance2,field.orientation_covariance3,field.orientation_covariance4,field.orientation_covariance5,field.orientation_covariance6,field.orientation_covariance7,field.orientation_covariance8,field.angular_velocity.x,field.angular_velocity.y,field.angular_velocity.z,field.angular_velocity_covariance0,field.angular_velocity_covariance1,field.angular_velocity_covariance2,field.angular_velocity_covariance3,field.angular_velocity_covariance4,field.angular_velocity_covariance5,field.angular_velocity_covariance6,field.angular_velocity_covariance7,field.angular_velocity_covariance8,field.linear_acceleration.x,field.linear_acceleration.y,field.linear_acceleration.z,field.linear_acceleration_covariance0,field.linear_acceleration_covariance1,field.linear_acceleration_covariance2,field.linear_acceleration_covariance3,field.linear_acceleration_covariance4,field.linear_acceleration_covariance5,field.linear_acceleration_covariance6,field.linear_acceleration_covariance7,field.linear_acceleration_covariance8
1622095923727928416,0,1622095923727113071,foot_imu_link,0.869271814823,0.262984871864,-0.32896193862,-0.258823245764,4.83956300945e-05,0.0,0.0,0.0,3.51054460288e-05,0.0,0.0,0.0,4.09240198243e-05,-0.860628783703,-0.510033011436,-1.21620035172,0.01,0.0,0.0,0.0,0.01,0.0,0.0,0.0,0.01,2.61128473282,3.12620520592,-1.84048008919,0.01,0.0,0.0,0.0,0.01,0.0,0.0,0.0,0.01
1622095923736036661,1,1622095923735336305,foot_imu_link,0.868713438511,0.266378641129,-0.328512042761,-0.257796823978,4.84288667805e-05,0.0,0.0,0.0,3.51381381842e-05,0.0,0.0,0.0,4.09600888823e-05,-0.79302072525,-0.376323610544,-1.15027928352,0.01,0.0,0.0,0.0,0.01,0.0,0.0,0.0,0.01,2.49734735489,3.26611423492,-1.81376242638,0.01,0.0,0.0,0.0,0.01,0.0,0.0,0.0,0.01
1622095923736994045,2,1622095923736450563,foot_imu_link,0.868299543858,0.269469022751,-0.327800095081,-0.256884276867,4.84620872119e-05,0.0,0.0,0.0,3.51708100213e-05,0.0,0.0,0.0,4.09961863859e-05,-0.756534993649,-0.222947791219,-1.07170319557,0.01,0.0,0.0,0.0,0.01,0.0,0.0,0.0,0.01,2.41784191132,3.08136034012,-1.59659016132,0.01,0.0,0.0,0.0,0.01,0.0,0.0,0.0,0.01
1622095923742876831,3,1622095923742276736,foot_imu_link,0.868001818657,0.272302299738,-0.326871067286,-0.256085336208,4.84953035796e-05,0.0,0.0,0.0,3.52034656037e-05,0.0,0.0,0.0,4.10323082715e-05,-0.718425750732,-0.093558177352,-1.00664401054,0.01,0.0,0.0,0.0,0.01,0.0,0.0,0.0,0.01,2.33481168747,3.08357667923,-1.56266796589,0.01,0.0,0.0,0.0,0.01,0.0,0.0,0.0,0.01
1622095923743985567,4,1622095923743413392,foot_imu_link,0.867860019207,0.274867027998,-0.32563149929,-0.255404174328,4.85285199473e-05,0.0,0.0,0.0,3.52361130589e-05,0.0,0.0,0.0,4.1068454539e-05,-0.692076265812,0.0748624056578,-0.94348526001,0.01,0.0,0.0,0.0,0.01,0.0,0.0,0.0,0.01,2.23763370514,2.83287668228,-1.54985189438,0.01,0.0,0.0,0.0,0.01,0.0,0.0,0.0,0.01
1622095923752130446,5,1622095923751564017,foot_imu_link,0.867857396603,0.277163505554,-0.324107378721,-0.254869371653,4.8561760697e-05,0.0,0.0,0.0,3.52687767687e-05,0.0,0.0,0.0,4.11046576978e-05,-0.652370512486,0.235422611237,-0.883927702904,0.01,0.0,0.0,0.0,0.01,0.0,0.0,0.0,0.01,2.23667740822,2.69221758842,-1.46016573906,0.01,0.0,0.0,0.0,0.01,0.0,0.0,0.0,0.01
1622095923759050619,6,1622095923758257809,foot_imu_link,0.8680113554,0.279181092978,-0.322274535894,-0.254466921091,4.85949364281e-05,0.0,0.0,0.0,3.53013835872e-05,0.0,0.0,0.0,4.11408567929e-05,-0.620052278042,0.405836462975,-0.817841887474,0.01,0.0,0.0,0.0,0.01,0.0,0.0,0.0,0.01,2.1626086235,2.58112549782,-1.41033160686,0.01,0.0,0.0,0.0,0.01,0.0,0.0,0.0,0.01
1622095923760004709,7,1622095923759526963,foot_imu_link,0.868302047253,0.280964374542,-0.320162862539,-0.254177689552,4.86281893688e-05,0.0,0.0,0.0,3.53340432333e-05,0.0,0.0,0.0,4.1177129034e-05,-0.595724105835,0.556817889214,-0.764396846294,0.01,0.0,0.0,0.0,0.01,0.0,0.0,0.0,0.01,2.19791936874,2.3363494873,-1.17879283428,0.01,0.0,0.0,0.0,0.01,0.0,0.0,0.0,0.01
1622095923767901340,8,1622095923767269299,foot_imu_link,0.868701338768,0.282557547092,-0.317798107862,-0.254015177488,4.86614098002e-05,0.0,0.0,0.0,3.53666541155e-05,0.0,0.0,0.0,4.12134175297e-05,-0.566945016384,0.69237691164,-0.728226721287,0.01,0.0,0.0,0.0,0.01,0.0,0.0,0.0,0.01,2.19410800934,2.01570463181,-1.1254696846,0.01,0.0,0.0,0.0,0.01,0.0,0.0,0.0,0.01
1622095923776127388,9,1622095923775539124,foot_imu_link,0.86917257309,0.284019351006,-0.315197497606,-0.254013091326,4.86946586772e-05,0.0,0.0,0.0,3.53992771887e-05,0.0,0.0,0.0,4.12497547893e-05,-0.528368711472,0.814799666405,-0.718678116798,0.01,0.0,0.0,0.0,0.01,0.0,0.0,0.0,0.01,2.11799454689,1.63473105431,-1.01026570797,0.01,0.0,0.0,0.0,0.01,0.0,0.0,0.0,0.01
1622095923777120370,10,1622095923776636743,foot_imu_link,0.8696834445,0.285430878401,-0.312355160713,-0.254193246365,4.87279156815e-05,0.0,0.0,0.0,3.54319043255e-05,0.0,0.0,0.0,4.12861326855e-05,-0.490147680044,0.929655194283,-0.744201242924,0.01,0.0,0.0,0.0,0.01,0.0,0.0,0.0,0.01,1.90983748436,1.44052815437,-0.900480091572,0.01,0.0,0.0,0.0,0.01,0.0,0.0,0.0,0.01
1622095923782963758,11,1622095923782611426,foot_imu_link,0.870224833488,0.286696046591,-0.309216022491,-0.254753917456,4.87611767495e-05,0.0,0.0,0.0,3.54645070803e-05,0.0,0.0,0.0,4.13225390274e-05,-0.376483500004,1.09512627125,-0.767451226711,0.01,0.0,0.0,0.0,0.01,0.0,0.0,0.0,0.01,1.35852921009,1.31974458694,-1.08898997307,0.01,0.0,0.0,0.0,0.01,0.0,0.0,0.0,0.01
1622095923783306021,12,1622095923783080364,foot_imu_link,0.870694577694,0.288081973791,-0.305919289589,-0.255564242601,4.87944865815e-05,0.0,0.0,0.0,3.54971464082e-05,0.0,0.0,0.0,4.13590144515e-05,-0.315369069576,1.15754640102,-0.865020871162,0.01,0.0,0.0,0.0,0.01,0.0,0.0,0.0,0.01,1.32124388218,1.20798754692,-0.576897501945,0.01,0.0,0.0,0.0,0.01,0.0,0.0,0.0,0.01
1622095923791678217,13,1622095923791462006,foot_imu_link,0.871136307716,0.28964343667,-0.302350074053,-0.256539672613,4.88278045407e-05,0.0,0.0,0.0,3.55297776086e-05,0.0,0.0,0.0,4.13955345759e-05,-0.30758947134,1.24938440323,-0.976830244064,0.01,0.0,0.0,0.0,0.01,0.0,0.0,0.0,0.01,1.28538954258,0.981574177742,-0.329683661461,0.01,0.0,0.0,0.0,0.01,0.0,0.0,0.0,0.01
1622095923800439841,14,1622095923800241195,foot_imu_link,0.871577084064,0.291454195976,-0.29847201705,-0.257531285286,4.88611550093e-05,0.0,0.0,0.0,3.55624128728e-05,0.0,0.0,0.0,4.14321034642e-05,-0.368043005466,1.33371460438,-1.09771883488,0.01,0.0,0.0,0.0,0.01,0.0,0.0,0.0,0.01,0.536084353924,1.17459893227,-0.293297737837,0.01,0.0,0.0,0.0,0.01,0.0,0.0,0.0,0.01
1622095923800611997,15,1622095923800494133,foot_imu_link,0.871993720531,0.293532341719,-0.29425278306,-0.258613824844,4.88945095415e-05,0.0,0.0,0.0,3.5595035946e-05,0.0,0.0,0.0,4.14687129891e-05,-0.405563086271,1.43311464787,-1.24009084702,0.01,0.0,0.0,0.0,0.01,0.0,0.0,0.0,0.01,0.286795675755,0.983745038509,-0.106583245099,0.01,0.0,0.0,0.0,0.01,0.0,0.0,0.0,0.01
1622095923807463504,16,1622095923807268994,foot_imu_link,0.872371196747,0.296003699303,-0.289579838514,-0.259795606136,4.89278518827e-05,0.0,0.0,0.0,3.56276468281e-05,0.0,0.0,0.0,4.15053672143e-05,-0.466333210468,1.55743694305,-1.44020092487,0.01,0.0,0.0,0.0,0.01,0.0,0.0,0.0,0.01,0.905222356319,0.926667809486,-0.076806165278,0.01,0.0,0.0,0.0,0.01,0.0,0.0,0.0,0.01
1622095923807632760,17,1622095923807515781,foot_imu_link,0.872502267361,0.299709349871,-0.283865094185,-0.26140922308,4.89612714335e-05,0.0,0.0,0.0,3.56602820923e-05,0.0,0.0,0.0,4.15420823945e-05,-0.55595099926,1.81467974186,-2.05732440948,0.01,0.0,0.0,0.0,0.01,0.0,0.0,0.0,0.01,2.18037009239,0.534876048565,-0.0975931286812,0.01,0.0,0.0,0.0,0.01,0.0,0.0,0.0,0.01
1622095923816471096,18,1622095923816258768,foot_imu_link,0.872502267361,0.303758203983,-0.276755422354,-0.264343053102,4.89946666023e-05,0.0,0.0,0.0,3.56928929745e-05,0.0,0.0,0.0,4.15788625932e-05,-0.288714915514,2.411257267,-2.49086689949,0.01,0.0,0.0,0.0,0.01,0.0,0.0,0.0,0.01,1.73122024536,2.53175830841,-0.869771122932,0.01,0.0,0.0,0.0,0.01,0.0,0.0,0.0,0.01
1622095923825128466,19,1622095923824944389,foot_imu_link,0.872083246708,0.308292537928,-0.270819664001,-0.266614586115,4.90280983441e-05,0.0,0.0,0.0,3.57254916657e-05,0.0,0.0,0.0,4.16156874922e-05,-0.385598361492,1.82043552399,-2.51358151436,0.01,0.0,0.0,0.0,0.01,0.0,0.0,0.0,0.01,0.391057640314,2.05851888657,3.04961919785,0.01,0.0,0.0,0.0,0.01,0.0,0.0,0.0,0.01
1622095923825417250,20,1622095923825283196,foot_imu_link,0.871856987476,0.313277959824,-0.264829993248,-0.267558455467,4.90615138312e-05,0.0,0.0,0.0,3.57580741022e-05,0.0,0.0,0.0,4.16525896007e-05,-0.92548507452,1.64935982227,-2.5058760643,0.01,0.0,0.0,0.0,0.01,0.0,0.0,0.0,0.01,-1.38060390949,1.13424742222,-0.561207056046,0.01,0.0,0.0,0.0,0.01,0.0,0.0,0.0,0.01
1622095923832315372,21,1622095923832107946,foot_imu_link,0.871816456318,0.318396538496,-0.258065730333,-0.268256992102,4.90949862096e-05,0.0,0.0,0.0,3.57906484115e-05,0.0,0.0,0.0,4.16895770462e-05,-1.14262878895,1.89528596401,-2.58893799782,0.01,0.0,0.0,0.0,0.01,0.0,0.0,0.0,0.01,-1.64195156097,0.259909212589,-1.31919252872,0.01,0.0,0.0,0.0,0.01,0.0,0.0,0.0,0.01
1622095923832490690,22,1622095923832392388,foot_imu_link,0.871799767017,0.323606193066,-0.250802606344,-0.268965154886,4.9128422015e-05,0.0,0.0,0.0,3.58231942751e-05,0.0,0.0,0.0,4.17266173192e-05,-1.21320343018,2.06127214432,-2.67058491707,0.01,0.0,0.0,0.0,0.01,0.0,0.0,0.0,0.01,-1.27627170086,1.37930941582,0.827466785908,0.01,0.0,0.0,0.0,0.01,0.0,0.0,0.0,0.01
1622095923841196375,23,1622095923841012843,foot_imu_link,0.871744155884,0.329310655594,-0.242972448468,-0.269408792257,4.91618862661e-05,0.0,0.0,0.0,3.5855748266e-05,0.0,0.0,0.0,4.17637429291e-05,-1.42594957352,2.17009305954,-2.88509011269,0.01,0.0,0.0,0.0,0.01,0.0,0.0,0.0,0.01,-1.36711764336,1.64649999142,1.43147397041,0.01,0.0,0.0,0.0,0.01,0.0,0.0,0.0,0.01
1622095923849822004,24,1622095923849656361,foot_imu_link,0.871725738049,0.335775196552,-0.234283074737,-0.26918554306,4.91953220715e-05,0.0,0.0,0.0,3.5888241302e-05,0.0,0.0,0.0,4.18009376213e-05,-1.84854829311,2.30133938789,-3.17096328735,0.01,0.0,0.0,0.0,0.01,0.0,0.0,0.0,0.01,-1.82829523087,1.51999056339,1.55492913723,0.01,0.0,0.0,0.0,0.01,0.0,0.0,0.0,0.01
1622095923849993708,25,1622095923849904587,foot_imu_link,0.871734797955,0.342826336622,-0.224516838789,-0.26859036088,4.92287903862e-05,0.0,0.0,0.0,3.59207505927e-05,0.0,0.0,0.0,4.18382582869e-05,-2.18120551109,2.56761860847,-3.45285844803,0.01,0.0,0.0,0.0,0.01,0.0,0.0,0.0,0.01,-2.50064373016,1.81873512268,0.567315101624,0.01,0.0,0.0,0.0,0.01,0.0,0.0,0.0,0.01
1622095923856966948,26,1622095923856833947,foot_imu_link,0.871672809124,0.350242435932,-0.213781565428,-0.267981857061,4.92622302553e-05,0.0,0.0,0.0,3.59531989284e-05,0.0,0.0,0.0,4.18756642895e-05,-2.34424901009,2.85816454887,-3.69409894943,0.01,0.0,0.0,0.0,0.01,0.0,0.0,0.0,0.01,-2.85714626312,2.4009282589,0.736089944839,0.01,0.0,0.0,0.0,0.01,0.0,0.0,0.0,0.01
1622095923857171791,27,1622095923857079055,foot_imu_link,0.871527314186,0.357815176249,-0.202295005322,-0.267367035151,4.92956376151e-05,0.0,0.0,0.0,3.59856310095e-05,0.0,0.0,0.0,4.19131962656e-05,-2.45522880554,3.09417200089,-3.83875989914,0.01,0.0,0.0,0.0,0.01,0.0,0.0,0.0,0.01,-2.98754167557,3.41012215614,1.4298119545,0.01,0.0,0.0,0.0,0.01,0.0,0.0,0.0,0.01
1622095923865845601,28,1622095923865712784,foot_imu_link,0.871271252632,0.365486860275,-0.19015994668,-0.266730189323,4.93290734206e-05,0.0,0.0,0.0,3.60180549632e-05,0.0,0.0,0.0,4.19508785971e-05,-2.55127596855,3.29693126678,-3.95585823059,0.01,0.0,0.0,0.0,0.01,0.0,0.0,0.0,0.01,-2.98979520798,3.89503741264,2.1137304306,0.01,0.0,0.0,0.0,0.01,0.0,0.0,0.0,0.01
1622095923872834083,29,1622095923872706617,foot_imu_link,0.870834350586,0.373178958893,-0.177437826991,-0.26627227664,4.9362484844e-05,0.0,0.0,0.0,3.6050442344e-05,0.0,0.0,0.0,4.19886787748e-05,-2.55916810036,3.5145111084,-4.06880140305,0.01,0.0,0.0,0.0,0.01,0.0,0.0,0.0,0.01,-3.30273962021,4.32407999039,2.47261595726,0.01,0.0,0.0,0.0,0.01,0.0,0.0,0.0,0.01
1622095923873034474,30,1622095923872947695,foot_imu_link,0.870195150375,0.380836635828,-0.164226576686,-0.265995502472,4.93958556309e-05,0.0,0.0,0.0,3.60827809609e-05,0.0,0.0,0.0,4.2026568353e-05,-2.54324960709,3.69903516769,-4.14978837967,0.01,0.0,0.0,0.0,0.01,0.0,0.0,0.0,0.01,-3.7465596199,4.96213150024,3.22655725479,0.01,0.0,0.0,0.0,0.01,0.0,0.0,0.0,0.01
1622095923881655535,31,1622095923881532578,foot_imu_link,0.869319558144,0.388364702463,-0.150858134031,-0.265891432762,4.94292142268e-05,0.0,0.0,0.0,3.61151114505e-05,0.0,0.0,0.0,4.20645960958e-05,-2.47476649284,3.77985405922,-4.17016410828,0.01,0.0,0.0,0.0,0.01,0.0,0.0,0.0,0.01,-4.30519151688,5.50687551498,3.77864956856,0.01,0.0,0.0,0.0,0.01,0.0,0.0,0.0,0.01
1622095923890373881,32,1622095923890249632,foot_imu_link,0.868196725845,0.395670711994,-0.137330114841,-0.266119688749,4.94625118677e-05,0.0,0.0,0.0,3.61473891124e-05,0.0,0.0,0.0,4.21027091754e-05,-2.34412336349,3.89556360245,-4.16862297058,0.01,0.0,0.0,0.0,0.01,0.0,0.0,0.0,0.01,-4.23041725159,6.28215551376,3.87548589706,0.01,0.0,0.0,0.0,0.01,0.0,0.0,0.0,0.01
1622095923890571862,33,1622095923890490521,foot_imu_link,0.866867661476,0.402847081423,-0.123620666564,-0.266406923532,4.9495793254e-05,0.0,0.0,0.0,3.61796545834e-05,0.0,0.0,0.0,4.21409319739e-05,-2.32244324684,3.96883058548,-4.17703771591,0.01,0.0,0.0,0.0,0.01,0.0,0.0,0.0,0.01,-5.65365409851,6.91558504105,4.69963359833,0.01,0.0,0.0,0.0,0.01,0.0,0.0,0.0,0.01
1622095923897650483,34,1622095923897487322,foot_imu_link,0.865446388721,0.409917026758,-0.109845198691,-0.266279280186,4.95290177491e-05,0.0,0.0,0.0,3.62118916087e-05,0.0,0.0,0.0,4.21792319819e-05,-2.46095204353,3.93055820465,-4.14119052887,0.01,0.0,0.0,0.0,0.01,0.0,0.0,0.0,0.01,-6.42553138733,7.26506710052,6.0611243248,0.01,0.0,0.0,0.0,0.01,0.0,0.0,0.0,0.01
1622095923897837821,35,1622095923897745342,foot_imu_link,0.863988995552,0.416849911213,-0.0959791243076,-0.265607178211,4.95622544351e-05,0.0,0.0,0.0,3.62441408251e-05,0.0,0.0,0.0,4.22176620271e-05,-2.65715718269,3.88909649849,-4.08798074722,0.01,0.0,0.0,0.0,0.01,0.0,0.0,0.0,0.01,-6.87694454193,8.06805992126,6.14068937302,0.01,0.0,0.0,0.0,0.01,0.0,0.0,0.0,0.01
1622095923906441393,36,1622095923906327491,foot_imu_link,0.862506210804,0.423461288214,-0.0819946303964,-0.264651805162,4.95953814023e-05,0.0,0.0,0.0,3.62763047045e-05,0.0,0.0,0.0,4.22561245816e-05,-2.75662565231,3.91239356995,-3.97875022888,0.01,0.0,0.0,0.0,0.01,0.0,0.0,0.0,0.01,-7.40261745453,8.12803554535,6.34132003784,0.01,0.0,0.0,0.0,0.01,0.0,0.0,0.0,0.01
1622095923915295515,37,1622095923915103854,foot_imu_link,0.860929191113,0.429898738861,-0.067717500031,-0.263443350792,4.96285083694e-05,0.0,0.0,0.0,3.63085051569e-05,0.0,0.0,0.0,4.22947049823e-05,-2.88136720657,3.99011993408,-3.96238493919,0.01,0.0,0.0,0.0,0.01,0.0,0.0,0.0,0.01,-8.1462430954,7.88734054565,6.75110960007,0.01,0.0,0.0,0.0,0.01,0.0,0.0,0.0,0.01
1622095923915389385,38,1622095923915299785,foot_imu_link,0.859251976013,0.436077415943,-0.0529772266746,-0.262137264013,4.96615134268e-05,0.0,0.0,0.0,3.63406324634e-05,0.0,0.0,0.0,4.23332894467e-05,-2.97540974617,4.15522098541,-3.93409204483,0.01,0.0,0.0,0.0,0.01,0.0,0.0,0.0,0.01,-9.07370376587,8.64428424835,7.43359565735,0.01,0.0,0.0,0.0,0.01,0.0,0.0,0.0,0.01
1622095923922364871,39,1622095923922202071,foot_imu_link,0.857631266117,0.441768974066,-0.0379026904702,-0.260523051023,4.96944900385e-05,0.0,0.0,0.0,3.63727760245e-05,0.0,0.0,0.0,4.23719714389e-05,-3.13584470749,4.26912498474,-3.78648853302,0.01,0.0,0.0,0.0,0.01,0.0,0.0,0.0,0.01,-9.55028152466,9.25791168213,8.70882320404,0.01,0.0,0.0,0.0,0.01,0.0,0.0,0.0,0.01
1622095923922472374,40,1622095923922387781,foot_imu_link,0.856139719486,0.446836799383,-0.0225270967931,-0.258561819792,4.9727360995e-05,0.0,0.0,0.0,3.64048830127e-05,0.0,0.0,0.0,4.2410702195e-05,-3.31152510643,4.37741613388,-3.57477855682,0.01,0.0,0.0,0.0,0.01,0.0,0.0,0.0,0.01,-9.88167095184,9.60055732727,9.70502567291,0.01,0.0,0.0,0.0,0.01,0.0,0.0,0.0,0.01
1622095923931345584,41,1622095923931186284,foot_imu_link,0.854874968529,0.451172918081,-0.00691907480359,-0.256093472242,4.97602278878e-05,0.0,0.0,0.0,3.64370062555e-05,0.0,0.0,0.0,4.24495020334e-05,-3.54338955879,4.44413328171,-3.3032336235,0.01,0.0,0.0,0.0,0.01,0.0,0.0,0.0,0.01,-9.83443164825,9.45230674744,10.9844102859,0.01,0.0,0.0,0.0,0.01,0.0,0.0,0.0,0.01
1622095923940089988,42,1622095923939915352,foot_imu_link,0.853778004646,0.454809993505,0.00882039312273,-0.253245174885,4.97929972528e-05,0.0,0.0,0.0,3.6469121371e-05,0.0,0.0,0.0,4.24883425084e-05,-3.7116727829,4.49176597595,-3.04552125931,0.01,0.0,0.0,0.0,0.01,0.0,0.0,0.0,0.01,-9.4672794342,9.04325008392,11.5475902557,0.01,0.0,0.0,0.0,0.01,0.0,0.0,0.0,0.01
1622095923940202004,43,1622095923940104479,foot_imu_link,0.852768063545,0.457768619061,0.0245472062379,-0.25026383996,4.98256975355e-05,0.0,0.0,0.0,3.65012446138e-05,0.0,0.0,0.0,4.25271992381e-05,-3.76661682129,4.53286266327,-2.79743003845,0.01,0.0,0.0,0.0,0.01,0.0,0.0,0.0,0.01,-9.89589309692,8.60511112213,11.9846458435,0.01,0.0,0.0,0.0,0.01,0.0,0.0,0.0,0.01
1622095923947290434,44,1622095923947082034,foot_imu_link,0.851805210114,0.460116058588,0.0402223467827,-0.247191026807,4.98583368633e-05,0.0,0.0,0.0,3.65333841113e-05,0.0,0.0,0.0,4.2566100668e-05,-3.79983067513,4.55970859528,-2.57724499702,0.01,0.0,0.0,0.0,0.01,0.0,0.0,0.0,0.01,-10.2693090439,8.20225906372,12.7299747467,0.01,0.0,0.0,0.0,0.01,0.0,0.0,0.0,0.01
1622095923947411782,45,1622095923947271888,foot_imu_link,0.850823879242,0.461899489164,0.0558246783912,-0.244195148349,4.9890882727e-05,0.0,0.0,0.0,3.65655195451e-05,0.0,0.0,0.0,4.26049939706e-05,-3.76601052284,4.60357236862,-2.37835931778,0.01,0.0,0.0,0.0,0.01,0.0,0.0,0.0,0.01,-10.7496109009,7.44408798218,12.9404144287,0.01,0.0,0.0,0.0,0.01,0.0,0.0,0.0,0.01
1622095923956340720,46,1622095923956110553,foot_imu_link,0.849865972996,0.463117659092,0.0712221264839,-0.241199865937,4.99233920176e-05,0.0,0.0,0.0,3.65977078065e-05,0.0,0.0,0.0,4.26439401008e-05,-3.74123001099,4.58642816544,-2.16186618805,0.01,0.0,0.0,0.0,0.01,0.0,0.0,0.0,0.01,-11.2606639862,7.82562875748,14.7256813049,0.01,0.0,0.0,0.0,0.01,0.0,0.0,0.0,0.01
1622095923963242339,47,1622095923963031787,foot_imu_link,0.848976492882,0.463847011328,0.0862157121301,-0.238016068935,4.99558484807e-05,0.0,0.0,0.0,3.66299245135e-05,0.0,0.0,0.0,4.26828659127e-05,-3.7541372776,4.46343278885,-1.95031058788,0.01,0.0,0.0,0.0,0.01,0.0,0.0,0.0,0.01,-10.8957080841,7.81083250046,15.6696996689,0.01,0.0,0.0,0.0,0.01,0.0,0.0,0.0,0.01
1622095923963367223,48,1622095923963271537,foot_imu_link,0.848045408726,0.4641520679,0.100750297308,-0.235013395548,4.99881870975e-05,0.0,0.0,0.0,3.66621249659e-05,0.0,0.0,0.0,4.27217429606e-05,-3.61891412735,4.38381004333,-1.76398169994,0.01,0.0,0.0,0.0,0.01,0.0,0.0,0.0,0.01,-11.5600385666,7.64245510101,15.7070608139,0.01,0.0,0.0,0.0,0.01,0.0,0.0,0.0,0.01
1622095923972078480,49,1622095923971934491,foot_imu_link,0.847164094448,0.463934034109,0.114952757955,-0.232086494565,5.00204850778e-05,0.0,0.0,0.0,3.66943782459e-05,0.0,0.0,0.0,4.2760603754e-05,-3.55444955826,4.32843255997,-1.54277479649,0.01,0.0,0.0,0.0,0.01,0.0,0.0,0.0,0.01,-11.5456237793,7.74419784546,16.191242218,0.01,0.0,0.0,0.0,0.01,0.0,0.0,0.0,0.01
1622095923972302855,50,1622095923972164110,foot_imu_link,0.846326708794,0.463246673346,0.128703609109,-0.229279398918,5.00527221031e-05,0.0,0.0,0.0,3.67266802898e-05,0.0,0.0,0.0,4.27994523563e-05,-3.45821976662,4.24319791794,-1.32828044891,0.01,0.0,0.0,0.0,0.01,0.0,0.0,0.0,0.01,-12.7343902588,6.91677761078,16.4796867371,0.01,0.0,0.0,0.0,0.01,0.0,0.0,0.0,0.01
1622095923981228822,51,1622095923980938742,foot_imu_link,0.84553527832,0.462218850851,0.142091199756,-0.226349368691,5.00848981736e-05,0.0,0.0,0.0,3.67590067157e-05,0.0,0.0,0.0,4.28382440674e-05,-3.45313382149,4.12409543991,-1.17768597603,0.01,0.0,0.0,0.0,0.01,0.0,0.0,0.0,0.01,-13.2780923843,7.19710922241,17.5078392029,0.01,0.0,0.0,0.0,0.01,0.0,0.0,0.0,0.01
1622095923988231688,52,1622095923987906256,foot_imu_link,0.844853162766,0.460687816143,0.154954567552,-0.223559811711,5.01170092254e-05,0.0,0.0,0.0,3.67913737782e-05,0.0,0.0,0.0,4.28769910781e-05,-3.34780502319,4.01304578781,-0.931754529476,0.01,0.0,0.0,0.0,0.01,0.0,0.0,0.0,0.01,-12.6527786255,7.04366111755,17.8856964111,0.01,0.0,0.0,0.0,0.01,0.0,0.0,0.0,0.01
1622095923988689860,53,1622095923988328189,foot_imu_link,0.844303309917,0.458679616451,0.167303800583,-0.220848888159,5.0149075577e-05,0.0,0.0,0.0,3.68237896047e-05,0.0,0.0,0.0,4.2915689325e-05,-3.26654934883,3.88673758507,-0.694763839245,0.01,0.0,0.0,0.0,0.01,0.0,0.0,0.0,0.01,-13.1351079941,6.89911270142,18.1259727478,0.01,0.0,0.0,0.0,0.01,0.0,0.0,0.0,0.01
1622095923997191411,54,1622095923996818278,foot_imu_link,0.843852996826,0.456210851669,0.179185122252,-0.218349903822,5.01810891009e-05,0.0,0.0,0.0,3.6856266386e-05,0.0,0.0,0.0,4.29543388079e-05,-3.14935040474,3.80243754387,-0.465369164944,0.01,0.0,0.0,0.0,0.01,0.0,0.0,0.0,0.01,-13.8059225082,6.79978942871,18.0010261536,0.01,0.0,0.0,0.0,0.01,0.0,0.0,0.0,0.01
1622095924006119352,55,1622095924005601893,foot_imu_link,0.843446493149,0.453461915255,0.190296575427,-0.216234982014,5.0213029479e-05,0.0,0.0,0.0,3.68887512947e-05,0.0,0.0,0.0,4.2992890763e-05,-2.90311360359,3.63391256332,-0.268782973289,0.01,0.0,0.0,0.0,0.01,0.0,0.0,0.0,0.01,-14.7142505646,6.86497592926,18.7171440125,0.01,0.0,0.0,0.0,0.01,0.0,0.0,0.0,0.01
1622095924006691254,56,1622095924006279412,foot_imu_link,0.843213319778,0.450323462486,0.200606584549,-0.214376062155,5.02449373478e-05,0.0,0.0,0.0,3.69213093493e-05,0.0,0.0,0.0,4.30313980178e-05,-2.71609044075,3.43043661118,-0.0163724590093,0.01,0.0,0.0,0.0,0.01,0.0,0.0,0.0,0.01,-14.6485834122,7.14823055267,19.679851532,0.01,0.0,0.0,0.0,0.01,0.0,0.0,0.0,0.01
1622095924013396188,57,1622095924012872160,foot_imu_link,0.843109607697,0.44695726037,0.209884807467,-0.212941020727,5.02768289619e-05,0.0,0.0,0.0,3.69539242951e-05,0.0,0.0,0.0,4.30698443176e-05,-2.41588616371,3.16751885414,0.205219805241,0.01,0.0,0.0,0.0,0.01,0.0,0.0,0.0,0.01,-15.8880443573,6.59496974945,20.1772079468,0.01,0.0,0.0,0.0,0.01,0.0,0.0,0.0,0.01
1622095924013991598,58,1622095924013579082,foot_imu_link,0.843256592751,0.443438202143,0.218302056193,-0.211246326566,5.03086880667e-05,0.0,0.0,0.0,3.69865798776e-05,0.0,0.0,0.0,4.31082174716e-05,-2.38497328758,2.82355713844,0.354316622019,0.01,0.0,0.0,0.0,0.01,0.0,0.0,0.0,0.01,-15.612654686,6.4864487648,20.7999954224,0.01,0.0,0.0,0.0,0.01,0.0,0.0,0.0,0.01
1622095924022425387,59,1622095924021951632,foot_imu_link,0.843557238579,0.439798265696,0.225553542376,-0.210033774376,5.0340494344e-05,0.0,0.0,0.0,3.70192639057e-05,0.0,0.0,0.0,4.31464971613e-05,-2.03889036179,2.51267361641,0.562677621841,0.01,0.0,0.0,0.0,0.01,0.0,0.0,0.0,0.01,-16.3178138733,6.12967157364,20.3880844116,0.01,0.0,0.0,0.0,0.01,0.0,0.0,0.0,0.01
1622095924030928844,60,1622095924030341173,foot_imu_link,0.844061255455,0.436079412699,0.231832191348,-0.208923876286,5.03722721756e-05,0.0,0.0,0.0,3.70519885704e-05,0.0,0.0,0.0,4.31847077688e-05,-1.85688841343,2.19030475616,0.715575039387,0.01,0.0,0.0,0.0,0.01,0.0,0.0,0.0,0.01,-16.5377254486,5.93633174896,21.3442420959,0.01,0.0,0.0,0.0,0.01,0.0,0.0,0.0,0.01
1622095924031865791,61,1622095924031392474,foot_imu_link,0.844855368137,0.432340949774,0.236926585436,-0.207765266299,5.04040784528e-05,0.0,0.0,0.0,3.708477419e-05,0.0,0.0,0.0,4.32229061853e-05,-1.69282257557,1.75659704208,0.867611527443,0.01,0.0,0.0,0.0,0.01,0.0,0.0,0.0,0.01,-15.5284557343,5.74430322647,21.7365894318,0.01,0.0,0.0,0.0,0.01,0.0,0.0,0.0,0.01
1622095924037968197,62,1622095924037569828,foot_imu_link,0.845870614052,0.428574830294,0.24099420011,-0.206756651402,5.04358400298e-05,0.0,0.0,0.0,3.71175882553e-05,0.0,0.0,0.0,4.32610436469e-05,-1.48520898819,1.41670632362,1.01450538635,0.01,0.0,0.0,0.0,0.01,0.0,0.0,0.0,0.01,-16.289478302,5.12258911133,21.5030193329,0.01,0.0,0.0,0.0,0.01,0.0,0.0,0.0,0.01
1622095924039000701,63,1622095924038255474,foot_imu_link,0.847103595734,0.424875795841,0.244150206447,-0.205637797713,5.04676503707e-05,0.0,0.0,0.0,3.71504835937e-05,0.0,0.0,0.0,4.32991648539e-05,-1.37817621231,1.06305873394,1.09404885769,0.01,0.0,0.0,0.0,0.01,0.0,0.0,0.0,0.01,-15.7495794296,5.01011276245,21.539691925,0.01,0.0,0.0,0.0,0.01,0.0,0.0,0.0,0.01
1622095924047545909,64,1622095924047014547,foot_imu_link,0.848451852798,0.421248674393,0.246248319745,-0.205038428307,5.04994566479e-05,0.0,0.0,0.0,3.71833789322e-05,0.0,0.0,0.0,4.33372657425e-05,-1.02476787567,0.775662004948,1.22716343403,0.01,0.0,0.0,0.0,0.01,0.0,0.0,0.0,0.01,-15.3649101257,4.54466056824,20.7831306458,0.01,0.0,0.0,0.0,0.01,0.0,0.0,0.0,0.01
1622095924055662488,65,1622095924055147262,foot_imu_link,0.849975764751,0.417452543974,0.247745767236,-0.204686716199,5.05312751162e-05,0.0,0.0,0.0,3.72163149073e-05,0.0,0.0,0.0,4.33753422492e-05,-0.870389580727,0.610166728497,1.38732469082,0.01,0.0,0.0,0.0,0.01,0.0,0.0,0.0,0.01,-15.8592996597,3.89968848228,21.4054527283,0.01,0.0,0.0,0.0,0.01,0.0,0.0,0.0,0.01
1622095924056239993,66,1622095924055809313,foot_imu_link,0.851752460003,0.413680553436,0.248438134789,-0.204119235277,5.05631301573e-05,0.0,0.0,0.0,3.72492996463e-05,0.0,0.0,0.0,4.34134268832e-05,-0.828230679035,0.273564249277,1.46669375896,0.01,0.0,0.0,0.0,0.01,0.0,0.0,0.0,0.01,-15.1694288254,3.17314529419,22.0447158813,0.01,0.0,0.0,0.0,0.01,0.0,0.0,0.0,0.01
1622095924062996231,67,1622095924062404331,foot_imu_link,0.853733539581,0.409920156002,0.248321041465,-0.203571334481,5.05949933258e-05,0.0,0.0,0.0,3.72822803217e-05,0.0,0.0,0.0,4.34514871352e-05,-0.702535867691,-0.0205472260714,1.56382226944,0.01,0.0,0.0,0.0,0.01,0.0,0.0,0.0,0.01,-15.3883113861,3.31640148163,21.0601081848,0.01,0.0,0.0,0.0,0.01,0.0,0.0,0.0,0.01
1622095924064003855,68,1622095924063527731,foot_imu_link,0.85584127903,0.40620547533,0.247387722135,-0.203303351998,5.06269174492e-05,0.0,0.0,0.0,3.73153260156e-05,0.0,0.0,0.0,4.34895839602e-05,-0.479108631611,-0.269603401423,1.66351020336,0.01,0.0,0.0,0.0,0.01,0.0,0.0,0.0,0.01,-16.4177494049,3.13124346733,20.6779766083,0.01,0.0,0.0,0.0,0.01,0.0,0.0,0.0,0.01
1622095924071766622,69,1622095924071325438,foot_imu_link,0.858090043068,0.402703106403,0.24540220201,-0.203198298812,5.0658874082e-05,0.0,0.0,0.0,3.73483920279e-05,0.0,0.0,0.0,4.35276848488e-05,-0.242794111371,-0.634196102619,1.71510517597,0.01,0.0,0.0,0.0,0.01,0.0,0.0,0.0,0.01,-15.5631561279,2.68570137024,21.2922668457,0.01,0.0,0.0,0.0,0.01,0.0,0.0,0.0,0.01
1622095924078718485,70,1622095924078138851,foot_imu_link,0.860531687737,0.399337738752,0.24264626205,-0.202823698521,5.06908997969e-05,0.0,0.0,0.0,3.73814824221e-05,0.0,0.0,0.0,4.35658345014e-05,-0.213492676616,-0.972636818886,1.73599183559,0.01,0.0,0.0,0.0,0.01,0.0,0.0,0.0,0.01,-15.6804866791,1.93411779404,21.1259269714,0.01,0.0,0.0,0.0,0.01,0.0,0.0,0.0,0.01
1622095924079400994,71,1622095924079005856,foot_imu_link,0.863049268723,0.396225482225,0.239170089364,-0.202358812094,5.07229539575e-05,0.0,0.0,0.0,3.7414589071e-05,0.0,0.0,0.0,4.36040044723e-05,-0.111014395952,-1.26269984245,1.71027946472,0.01,0.0,0.0,0.0,0.01,0.0,0.0,0.0,0.01,-15.6609563828,1.85199534893,20.088344574,0.01,0.0,0.0,0.0,0.01,0.0,0.0,0.0,0.01
1622095924087747230,72,1622095924087187668,foot_imu_link,0.865600883961,0.393357247114,0.234989702702,-0.20195324719,5.07550609457e-05,0.0,0.0,0.0,3.74477119745e-05,0.0,0.0,0.0,4.36422232071e-05,0.0415997691453,-1.51968920231,1.69453501701,0.01,0.0,0.0,0.0,0.01,0.0,0.0,0.0,0.01,-15.6282520294,1.81377851963,19.7018089294,0.01,0.0,0.0,0.0,0.01,0.0,0.0,0.0,0.01
1622095924088317454,73,1622095924087903655,foot_imu_link,0.868211209774,0.390727043152,0.230127245188,-0.201452702284,5.07872532707e-05,0.0,0.0,0.0,3.74808511327e-05,0.0,0.0,0.0,4.36804947695e-05,0.13361607492,-1.79522943497,1.66719806194,0.01,0.0,0.0,0.0,0.01,0.0,0.0,0.0,0.01,-15.6669569016,1.57097411156,19.6137924194,0.01,0.0,0.0,0.0,0.01,0.0,0.0,0.0,0.01
1622095924096615076,74,1622095924096198526,foot_imu_link,0.870878040791,0.388349711895,0.224742144346,-0.200616642833,5.08195024871e-05,0.0,0.0,0.0,3.75140146728e-05,0.0,0.0,0.0,4.37188597962e-05,0.117594711483,-2.05478692055,1.59939110279,0.01,0.0,0.0,0.0,0.01,0.0,0.0,0.0,0.01,-15.6515655518,1.72079920769,19.1337928772,0.01,0.0,0.0,0.0,0.01,0.0,0.0,0.0,0.01
1622095924103366528,75,1622095924102843747,foot_imu_link,0.873586654663,0.386194288731,0.21888242662,-0.199476674199,5.08518126583e-05,0.0,0.0,0.0,3.75471985312e-05,0.0,0.0,0.0,4.37572776504e-05,0.10202909261,-2.28889989853,1.53937757015,0.01,0.0,0.0,0.0,0.01,0.0,0.0,0.0,0.01,-15.5774354935,1.8249297142,18.4679870605,0.01,0.0,0.0,0.0,0.01,0.0,0.0,0.0,0.01
1622095924103910370,76,1622095924103579587,foot_imu_link,0.876347780228,0.384222298861,0.212592810392,-0.197970479727,5.08841837845e-05,0.0,0.0,0.0,3.75803864533e-05,0.0,0.0,0.0,4.37957686505e-05,0.0522935278714,-2.51290082932,1.48443162441,0.01,0.0,0.0,0.0,0.01,0.0,0.0,0.0,0.01,-15.2711267471,1.75831913948,18.0586566925,0.01,0.0,0.0,0.0,0.01,0.0,0.0,0.0,0.01
1622095924112396572,77,1622095924111910957,foot_imu_link,0.879137277603,0.382391363382,0.205936565995,-0.196174681187,5.09166686931e-05,0.0,0.0,0.0,3.76136231393e-05,0.0,0.0,0.0,4.38343856241e-05,0.016967156902,-2.70312929153,1.44576513767,0.01,0.0,0.0,0.0,0.01,0.0,0.0,0.0,0.01,-14.8283977509,1.90884518623,17.5553646088,0.01,0.0,0.0,0.0,0.01,0.0,0.0,0.0,0.01
1622095924121154698,78,1622095924120523932,foot_imu_link,0.881940662861,0.380672574043,0.198865130544,-0.194221258163,5.09491576655e-05,0.0,0.0,0.0,3.76468029341e-05,0.0,0.0,0.0,4.38730432344e-05,0.0331215374172,-2.88163328171,1.42710983753,0.01,0.0,0.0,0.0,0.01,0.0,0.0,0.0,0.01,-14.2525835037,1.89914906025,17.1731185913,0.01,0.0,0.0,0.0,0.01,0.0,0.0,0.0,0.01
1622095924121985266,79,1622095924121328188,foot_imu_link,0.884740650654,0.37906935811,0.19127304852,-0.192236945033,5.09817157201e-05,0.0,0.0,0.0,3.76799949199e-05,0.0,0.0,0.0,4.39117943088e-05,0.110985204577,-3.07871079445,1.4238370657,0.01,0.0,0.0,0.0,0.01,0.0,0.0,0.0,0.01,-13.6926240921,2.00364375114,16.7671775818,0.01,0.0,0.0,0.0,0.01,0.0,0.0,0.0,0.01
1622095924128228019,80,1622095924127747873,foot_imu_link,0.887508928776,0.377601146698,0.183099478483,-0.190315634012,5.10143794299e-05,0.0,0.0,0.0,3.77132275422e-05,0.0,0.0,0.0,4.39506754205e-05,0.234229132533,-3.28354978561,1.42115652561,0.01,0.0,0.0,0.0,0.01,0.0,0.0,0.0,0.01,-13.1764726639,1.92351078987,16.2924633026,0.01,0.0,0.0,0.0,0.01,0.0,0.0,0.0,0.01
1622095924128823536,81,1622095924128473994,foot_imu_link,0.890232563019,0.376261740923,0.174301251769,-0.188499838114,5.10470634579e-05,0.0,0.0,0.0,3.7746407337e-05,0.0,0.0,0.0,4.39896012324e-05,0.378813892603,-3.49457859993,1.42327678204,0.01,0.0,0.0,0.0,0.01,0.0,0.0,0.0,0.01,-12.5266427994,2.13668584824,15.7117023468,0.01,0.0,0.0,0.0,0.01,0.0,0.0,0.0,0.01
1622095924137402025,82,1622095924136897855,foot_imu_link,0.892875909805,0.375036329031,0.164869427681,-0.18691803515,5.10798653322e-05,0.0,0.0,0.0,3.7779631832e-05,0.0,0.0,0.0,4.40286652087e-05,0.571560204029,-3.6886780262,1.43505859375,0.01,0.0,0.0,0.0,0.01,0.0,0.0,0.0,0.01,-11.996928215,2.3804962635,15.1545381546,0.01,0.0,0.0,0.0,0.01,0.0,0.0,0.0,0.01
1622095924145887333,83,1622095924145365769,foot_imu_link,0.895420610905,0.373901665211,0.154818475246,-0.18560923636,5.11127240977e-05,0.0,0.0,0.0,3.78128563271e-05,0.0,0.0,0.0,4.40678348403e-05,0.775143325329,-3.8683423996,1.45185101032,0.01,0.0,0.0,0.0,0.01,0.0,0.0,0.0,0.01,-11.4597244263,2.51311159134,14.5050878525,0.01,0.0,0.0,0.0,0.01,0.0,0.0,0.0,0.01
1622095924146566443,84,1622095924146155872,foot_imu_link,0.897877633572,0.372789442539,0.144160687923,-0.1845574826,5.11456560092e-05,0.0,0.0,0.0,3.78460605038e-05,0.0,0.0,0.0,4.41070938724e-05,0.966430068016,-4.04585123062,1.49265515804,0.01,0.0,0.0,0.0,0.01,0.0,0.0,0.0,0.01,-10.8820495605,2.76411056519,13.9497814178,0.01,0.0,0.0,0.0,0.01,0.0,0.0,0.0,0.01
1622095924152892442,85,1622095924152378355,foot_imu_link,0.900252521038,0.371669858694,0.13290181756,-0.18369525671,5.11786610665e-05,0.0,0.0,0.0,3.78792646806e-05,0.0,0.0,0.0,4.41464301141e-05,1.12864506245,-4.22403764725,1.53681588173,0.01,0.0,0.0,0.0,0.01,0.0,0.0,0.0,0.01,-10.3535175323,2.8034965992,13.2689476013,0.01,0.0,0.0,0.0,0.01,0.0,0.0,0.0,0.01
1622095924153418687,86,1622095924153069281,foot_imu_link,0.902531027794,0.370516896248,0.121110059321,-0.182995706797,5.12117514607e-05,0.0,0.0,0.0,3.79124647936e-05,0.0,0.0,0.0,4.41858801383e-05,1.27272665501,-4.38756990433,1.58354735374,0.01,0.0,0.0,0.0,0.01,0.0,0.0,0.0,0.01,-9.91728401184,2.95997357368,12.4542884827,0.01,0.0,0.0,0.0,0.01,0.0,0.0,0.0,0.01
1622095924162592097,87,1622095924161929581,foot_imu_link,0.904696881771,0.369320124388,0.108840741217,-0.182427898049,5.12448824916e-05,0.0,0.0,0.0,3.79456486521e-05,0.0,0.0,0.0,4.42254154994e-05,1.39723396301,-4.53188323975,1.62395656109,0.01,0.0,0.0,0.0,0.01,0.0,0.0,0.0,0.01,-9.52810573578,3.12166595459,11.5917444229,0.01,0.0,0.0,0.0,0.01,0.0,0.0,0.0,0.01
1622095924170706428,88,1622095924170123189,foot_imu_link,0.906752765179,0.36801636219,0.0961000919342,-0.182011589408,5.12781029229e-05,0.0,0.0,0.0,3.79788162559e-05,0.0,0.0,0.0,4.42650280701e-05,1.52449250221,-4.66562128067,1.68682157993,0.01,0.0,0.0,0.0,0.01,0.0,0.0,0.0,0.01,-9.17681980133,3.28353691101,10.8404026031,0.01,0.0,0.0,0.0,0.01,0.0,0.0,0.0,0.01
1622095924171694094,89,1622095924171198695,foot_imu_link,0.908695816994,0.366590559483,0.0829360261559,-0.181672856212,5.13114208822e-05,0.0,0.0,0.0,3.80120082416e-05,0.0,0.0,0.0,4.43047341049e-05,1.61940431595,-4.79744100571,1.74933731556,0.01,0.0,0.0,0.0,0.01,0.0,0.0,0.0,0.01,-8.74858760834,3.36519622803,10.1017017365,0.01,0.0,0.0,0.0,0.01,0.0,0.0,0.0,0.01
1622095924178092297,90,1622095924177546300,foot_imu_link,0.910524785519,0.365028977394,0.0693776533008,-0.181342914701,5.13447632234e-05,0.0,0.0,0.0,3.80451433361e-05,0.0,0.0,0.0,4.43444848401e-05,1.68318736553,-4.92294979095,1.80986952782,0.01,0.0,0.0,0.0,0.01,0.0,0.0,0.0,0.01,-8.4278049469,3.32494401932,9.42324066162,0.01,0.0,0.0,0.0,0.01,0.0,0.0,0.0,0.01
1622095924179047434,91,1622095924178533980,foot_imu_link,0.912216365337,0.36334335804,0.0554580166936,-0.18101733923,5.13782193472e-05,0.0,0.0,0.0,3.80783068762e-05,0.0,0.0,0.0,4.43843209121e-05,1.74479854107,-5.04306411743,1.86199891567,0.01,0.0,0.0,0.0,0.01,0.0,0.0,0.0,0.01,-7.91214799881,3.27446985245,8.79055309296,0.01,0.0,0.0,0.0,0.01,0.0,0.0,0.0,0.01
1622095924187317465,92,1622095924186639138,foot_imu_link,0.91376709938,0.361486315727,0.0411897972226,-0.180723130703,5.14117242348e-05,0.0,0.0,0.0,3.81114460344e-05,0.0,0.0,0.0,4.44242179391e-05,1.81263589859,-5.14814329147,1.92923915386,0.01,0.0,0.0,0.0,0.01,0.0,0.0,0.0,0.01,-7.44918775558,3.32595252991,7.93712520599,0.01,0.0,0.0,0.0,0.01,0.0,0.0,0.0,0.01
1622095924193565356,93,1622095924193079303,foot_imu_link,0.915178000927,0.359483093023,0.0266122408211,-0.180313199759,5.14453185231e-05,0.0,0.0,0.0,3.81445892562e-05,0.0,0.0,0.0,4.44641596663e-05,1.82267463207,-5.26497793198,1.98313724995,0.01,0.0,0.0,0.0,0.01,0.0,0.0,0.0,0.01,-7.16586208344,3.32230472565,7.34176158905,0.01,0.0,0.0,0.0,0.01,0.0,0.0,0.0,0.01
1622095924194337939,94,1622095924193916415,foot_imu_link,0.916428208351,0.357340246439,0.0118002621457,-0.179800271988,5.14789615752e-05,0.0,0.0,0.0,3.8177720287e-05,0.0,0.0,0.0,4.45041542211e-05,1.82983994484,-5.35717344284,2.02788448334,0.01,0.0,0.0,0.0,0.01,0.0,0.0,0.0,0.01,-6.7898349762,3.23646020889,6.42605829239,0.01,0.0,0.0,0.0,0.01,0.0,0.0,0.0,0.01
1622095924203138035,95,1622095924202427431,foot_imu_link,0.917521715164,0.355009883642,-0.00325021147728,-0.179196834564,5.15126615186e-05,0.0,0.0,0.0,3.82108391269e-05,0.0,0.0,0.0,4.45441650306e-05,1.84028840065,-5.44000101089,2.08972597122,0.01,0.0,0.0,0.0,0.01,0.0,0.0,0.0,0.01,-6.81720066071,3.42206549644,5.5642209053,0.01,0.0,0.0,0.0,0.01,0.0,0.0,0.0,0.01
1622095924203749861,96,1622095924203282497,foot_imu_link,0.918441176414,0.352559715509,-0.0184522289783,-0.178401589394,5.1546422417e-05,0.0,0.0,0.0,3.82439579667e-05,0.0,0.0,0.0,4.45842286676e-05,1.80403721333,-5.51556921005,2.1208729744,0.01,0.0,0.0,0.0,0.01,0.0,0.0,0.0,0.01,-6.36862754822,3.32302856445,5.03087568283,0.01,0.0,0.0,0.0,0.01,0.0,0.0,0.0,0.01
1622095924211832099,97,1622095924211307060,foot_imu_link,0.919254422188,0.349928289652,-0.0337687134743,-0.177147805691,5.15802361429e-05,0.0,0.0,0.0,3.82770605519e-05,0.0,0.0,0.0,4.46242841774e-05,1.66104924679,-5.61012220383,2.18378424644,0.01,0.0,0.0,0.0,0.01,0.0,0.0,0.0,0.01,-5.64566421509,3.79640626907,4.64208173752,0.01,0.0,0.0,0.0,0.01,0.0,0.0,0.0,0.01
1622095924218358870,98,1622095924217892558,foot_imu_link,0.91997641325,0.346969872713,-0.0491742193699,-0.175605282187,5.16140945691e-05,0.0,0.0,0.0,3.83101509462e-05,0.0,0.0,0.0,4.46643234325e-05,1.57796323299,-5.66154432297,2.30112624168,0.01,0.0,0.0,0.0,0.01,0.0,0.0,0.0,0.01,-5.1325750351,3.65128898621,3.76707696915,0.01,0.0,0.0,0.0,0.01,0.0,0.0,0.0,0.01
1622095924219181433,99,1622095924218734120,foot_imu_link,0.920539438725,0.343728423119,-0.064632974565,-0.174013063312,5.16480017593e-05,0.0,0.0,0.0,3.83432494677e-05,0.0,0.0,0.0,4.47043789422e-05,1.58327281475,-5.66887760162,2.38724517822,0.01,0.0,0.0,0.0,0.01,0.0,0.0,0.0,0.01,-4.91924190521,3.39135456085,2.91808819771,0.01,0.0,0.0,0.0,0.01,0.0,0.0,0.0,0.01
1622095924227981862,100,1622095924227400745,foot_imu_link,0.920979738235,0.340147435665,-0.080043040216,-0.172305673361,5.16819536497e-05,0.0,0.0,0.0,3.83763439256e-05,0.0,0.0,0.0,4.47444303883e-05,1.55270814896,-5.65087652206,2.49689865112,0.01,0.0,0.0,0.0,0.01,0.0,0.0,0.0,0.01,-4.42804908752,3.39773321152,2.25479078293,0.01,0.0,0.0,0.0,0.01,0.0,0.0,0.0,0.01
1622095924236147809,101,1622095924235536094,foot_imu_link,0.921277940273,0.336159050465,-0.0953736454248,-0.170727670193,5.17159177311e-05,0.0,0.0,0.0,3.84094140015e-05,0.0,0.0,0.0,4.47844249431e-05,1.6120929718,-5.57936906815,2.61747264862,0.01,0.0,0.0,0.0,0.01,0.0,0.0,0.0,0.01,-4.19694900513,3.34452748299,1.4591588974,0.01,0.0,0.0,0.0,0.01,0.0,0.0,0.0,0.01
1622095924236905342,102,1622095924236388466,foot_imu_link,0.921422660351,0.331857889891,-0.110613174736,-0.169161006808,5.17499305765e-05,0.0,0.0,0.0,3.84424840774e-05,0.0,0.0,0.0,4.48243910523e-05,1.62575352192,-5.52636861801,2.70480966568,0.01,0.0,0.0,0.0,0.01,0.0,0.0,0.0,0.01,-3.73412108421,3.22034883499,1.33392572403,0.01,0.0,0.0,0.0,0.01,0.0,0.0,0.0,0.01
1622095924243381903,103,1622095924242910758,foot_imu_link,0.921471357346,0.327121317387,-0.125741884112,-0.167544543743,5.17839799947e-05,0.0,0.0,0.0,3.84755744716e-05,0.0,0.0,0.0,4.48643205886e-05,1.6192214489,-5.46922922134,2.84806990623,0.01,0.0,0.0,0.0,0.01,0.0,0.0,0.0,0.01,-3.17348241806,3.32873392105,1.11829566956,0.01,0.0,0.0,0.0,0.01,0.0,0.0,0.0,0.01
1622095924244146588,104,1622095924243730294,foot_imu_link,0.921431064606,0.321864426136,-0.140785902739,-0.165974363685,5.18180334767e-05,0.0,0.0,0.0,3.85086445476e-05,0.0,0.0,0.0,4.49041688516e-05,1.65574538708,-5.39625597,3.01702022552,0.01,0.0,0.0,0.0,0.01,0.0,0.0,0.0,0.01,-2.89438056946,3.20260763168,0.389585345984,0.01,0.0,0.0,0.0,0.01,0.0,0.0,0.0,0.01
1622095924252293036,105,1622095924251812018,foot_imu_link,0.921259999275,0.316138267517,-0.155585125089,-0.164711549878,5.18521357226e-05,0.0,0.0,0.0,3.85417511964e-05,0.0,0.0,0.0,4.49439805416e-05,1.77468216419,-5.2501077652,3.14406371117,0.01,0.0,0.0,0.0,0.01,0.0,0.0,0.0,0.01,-3.00089645386,2.70851349831,-0.318535447121,0.01,0.0,0.0,0.0,0.01,0.0,0.0,0.0,0.01
1622095924260839121,106,1622095924260277255,foot_imu_link,0.920988976955,0.309967577457,-0.170072674751,-0.163630008698,5.18862420322e-05,0.0,0.0,0.0,3.85748334633e-05,0.0,0.0,0.0,4.49836662582e-05,1.83436477184,-5.08306741714,3.2594974041,0.01,0.0,0.0,0.0,0.01,0.0,0.0,0.0,0.01,-2.44087266922,2.24500131607,-0.497724592686,0.01,0.0,0.0,0.0,0.01,0.0,0.0,0.0,0.01
1622095924261529966,107,1622095924261138980,foot_imu_link,0.920608818531,0.303330421448,-0.184195399284,-0.162918031216,5.1920405233e-05,0.0,0.0,0.0,3.86079766851e-05,0.0,0.0,0.0,4.50232991472e-05,1.96641862392,-4.88558483124,3.3729622364,0.01,0.0,0.0,0.0,0.01,0.0,0.0,0.0,0.01,-1.93781805038,2.17567801476,-0.513713121414,0.01,0.0,0.0,0.0,0.01,0.0,0.0,0.0,0.01
1622095924268014733,108,1622095924267549971,foot_imu_link,0.920158565044,0.296129375696,-0.198091879487,-0.162404820323,5.19545277972e-05,0.0,0.0,0.0,3.8641083334e-05,0.0,0.0,0.0,4.5062789808e-05,2.05700969696,-4.74363040924,3.54075336456,0.01,0.0,0.0,0.0,0.01,0.0,0.0,0.0,0.01,-1.65912628174,2.05086827278,-0.3812469244,0.01,0.0,0.0,0.0,0.01,0.0,0.0,0.0,0.01
1622095924268719747,109,1622095924268339670,foot_imu_link,0.91961234808,0.288453906775,-0.211810767651,-0.161999017,5.1988678807e-05,0.0,0.0,0.0,3.86742346831e-05,0.0,0.0,0.0,4.51021666863e-05,2.11851716042,-4.6404914856,3.68242001534,0.01,0.0,0.0,0.0,0.01,0.0,0.0,0.0,0.01,-1.13046872616,1.43266510963,-0.399736404419,0.01,0.0,0.0,0.0,0.01,0.0,0.0,0.0,0.01
1622095924277461673,110,1622095924276843757,foot_imu_link,0.918975174427,0.280403494835,-0.225283056498,-0.161573603749,5.20228704534e-05,0.0,0.0,0.0,3.87074266689e-05,0.0,0.0,0.0,4.5141454164e-05,2.12220907211,-4.53904628754,3.79865789413,0.01,0.0,0.0,0.0,0.01,0.0,0.0,0.0,0.01,-0.277195036411,0.8667126894,-0.570093035698,0.01,0.0,0.0,0.0,0.01,0.0,0.0,0.0,0.01
1622095924285796050,111,1622095924285232638,foot_imu_link,0.918236374855,0.272046625614,-0.238559886813,-0.161002352834,5.20570336542e-05,0.0,0.0,0.0,3.87406064637e-05,0.0,0.0,0.0,4.51805669043e-05,2.07994318008,-4.4710817337,3.89887809753,0.01,0.0,0.0,0.0,0.01,0.0,0.0,0.0,0.01,0.769588828087,0.023037545383,-0.812023043633,0.01,0.0,0.0,0.0,0.01,0.0,0.0,0.0,0.01
1622095924286642476,112,1622095924286225090,foot_imu_link,0.917434692383,0.263581246138,-0.251377612352,-0.160149544477,5.2091221237e-05,0.0,0.0,0.0,3.87738309587e-05,0.0,0.0,0.0,4.52195699258e-05,1.94135046005,-4.33292579651,3.93004131317,0.01,0.0,0.0,0.0,0.01,0.0,0.0,0.0,0.01,1.46687710285,-0.957724332809,-1.33682906628,0.01,0.0,0.0,0.0,0.01,0.0,0.0,0.0,0.01
1622095924292846609,113,1622095924292326237,foot_imu_link,0.91652482748,0.25522351265,-0.263853788376,-0.15882229805,5.21254250745e-05,0.0,0.0,0.0,3.88070920267e-05,0.0,0.0,0.0,4.52584266555e-05,1.72688901424,-4.27440834045,3.90425682068,0.01,0.0,0.0,0.0,0.01,0.0,0.0,0.0,0.01,2.0587542057,-1.49719154835,-1.41324555874,0.01,0.0,0.0,0.0,0.01,0.0,0.0,0.0,0.01
1622095924293629440,114,1622095924293154387,foot_imu_link,0.915590703487,0.247233211994,-0.275855630636,-0.156438797712,5.21596126572e-05,0.0,0.0,0.0,3.8840385604e-05,0.0,0.0,0.0,4.52971370933e-05,1.2536970377,-4.23350048065,3.84755134583,0.01,0.0,0.0,0.0,0.01,0.0,0.0,0.0,0.01,2.14182090759,-2.10552191734,-1.30213582516,0.01,0.0,0.0,0.0,0.01,0.0,0.0,0.0,0.01
1622095924302186214,115,1622095924301598341,foot_imu_link,0.914526939392,0.239529594779,-0.287640988827,-0.153390824795,5.21938043037e-05,0.0,0.0,0.0,3.88736994996e-05,0.0,0.0,0.0,4.5335729685e-05,0.965688467026,-4.25301790237,3.79016113281,0.01,0.0,0.0,0.0,0.01,0.0,0.0,0.0,0.01,3.0106317997,-2.76280069351,-1.97485804558,0.01,0.0,0.0,0.0,0.01,0.0,0.0,0.0,0.01
1622095924308846461,116,1622095924308198437,foot_imu_link,0.913372933865,0.232328772545,-0.299094617367,-0.149384006858,5.22279878228e-05,0.0,0.0,0.0,3.89070499681e-05,0.0,0.0,0.0,4.53741678575e-05,0.53077930212,-4.26508378983,3.68724060059,0.01,0.0,0.0,0.0,0.01,0.0,0.0,0.0,0.01,3.76651525497,-3.39241266251,-1.99827706814,0.01,0.0,0.0,0.0,0.01,0.0,0.0,0.0,0.01
1622095924309728258,117,1622095924309183037,foot_imu_link,0.912057876587,0.225808799267,-0.310290038586,-0.144502520561,5.2262134769e-05,0.0,0.0,0.0,3.8940408564e-05,0.0,0.0,0.0,4.54124678655e-05,0.115530885756,-4.31255912781,3.51369071007,0.01,0.0,0.0,0.0,0.01,0.0,0.0,0.0,0.01,4.44310235977,-3.88475131989,-2.12027931213,0.01,0.0,0.0,0.0,0.01,0.0,0.0,0.0,0.01
1622095924317972236,118,1622095924317379798,foot_imu_link,0.910544872284,0.220011010766,-0.321214675903,-0.139011979103,5.22962410785e-05,0.0,0.0,0.0,3.89737630962e-05,0.0,0.0,0.0,4.54505971998e-05,-0.209293439984,-4.33347988129,3.29075193405,0.01,0.0,0.0,0.0,0.01,0.0,0.0,0.0,0.01,4.43879985809,-4.26297426224,-3.06100583076,0.01,0.0,0.0,0.0,0.01,0.0,0.0,0.0,0.01
1622095924318838850,119,1622095924318335490,foot_imu_link,0.908846497536,0.215119153261,-0.33177036047,-0.132854178548,5.23303473881e-05,0.0,0.0,0.0,3.90071542014e-05,0.0,0.0,0.0,4.54886452609e-05,-0.590653479099,-4.33105230331,3.00935411453,0.01,0.0,0.0,0.0,0.01,0.0,0.0,0.0,0.01,4.9880065918,-4.61735963821,-3.55185341835,0.01,0.0,0.0,0.0,0.01,0.0,0.0,0.0,0.01
1622095924327080763,120,1622095924326433186,foot_imu_link,0.906963050365,0.211109131575,-0.341919004917,-0.126263514161,5.23644333793e-05,0.0,0.0,0.0,3.90405534339e-05,0.0,0.0,0.0,4.55265551574e-05,-0.890720844269,-4.29542350769,2.71052885056,0.01,0.0,0.0,0.0,0.01,0.0,0.0,0.0,0.01,4.66301250458,-4.81193971634,-4.29115772247,0.01,0.0,0.0,0.0,0.01,0.0,0.0,0.0,0.01
1622095924333526272,121,1622095924333018307,foot_imu_link,0.90495377779,0.207908555865,-0.351462334394,-0.119612172246,5.23984502883e-05,0.0,0.0,0.0,3.90739242207e-05,0.0,0.0,0.0,4.55643146985e-05,-1.06822311878,-4.13790416718,2.38357782364,0.01,0.0,0.0,0.0,0.01,0.0,0.0,0.0,0.01,4.28647756577,-4.98884677887,-4.64490890503,0.01,0.0,0.0,0.0,0.01,0.0,0.0,0.0,0.01
1622095924334570813,122,1622095924334055957,foot_imu_link,0.902760863304,0.205504238605,-0.360650151968,-0.112793475389,5.24323899878e-05,0.0,0.0,0.0,3.91072584346e-05,0.0,0.0,0.0,4.56019198205e-05,-1.26125013828,-4.086332798,2.08590292931,0.01,0.0,0.0,0.0,0.01,0.0,0.0,0.0,0.01,5.25321578979,-4.88969707489,-4.45027256012,0.01,0.0,0.0,0.0,0.01,0.0,0.0,0.0,0.01
1622095924342732877,123,1622095924342200303,foot_imu_link,0.900411903858,0.203750520945,-0.369422465563,-0.106166295707,5.24663378145e-05,0.0,0.0,0.0,3.91406210941e-05,0.0,0.0,0.0,4.56394477329e-05,-1.31293356419,-3.97230553627,1.79204106331,0.01,0.0,0.0,0.0,0.01,0.0,0.0,0.0,0.01,5.39263820648,-4.83908891678,-4.89613437653,0.01,0.0,0.0,0.0,0.01,0.0,0.0,0.0,0.01
1622095924351284744,124,1622095924350555738,foot_imu_link,0.897973001003,0.202659532428,-0.377669751644,-0.0996958687901,5.25002003044e-05,0.0,0.0,0.0,3.91739471807e-05,0.0,0.0,0.0,4.56768293534e-05,-1.39323759079,-3.81110882759,1.50009036064,0.01,0.0,0.0,0.0,0.01,0.0,0.0,0.0,0.01,5.74308156967,-4.72173166275,-5.11123752594,0.01,0.0,0.0,0.0,0.01,0.0,0.0,0.0,0.01
1622095924351993849,125,1622095924351518235,foot_imu_link,0.895479261875,0.20220965147,-0.385351449251,-0.093447715044,5.25340343486e-05,0.0,0.0,0.0,3.9207252949e-05,0.0,0.0,0.0,4.57141012552e-05,-1.45411217213,-3.62448000908,1.20964491367,0.01,0.0,0.0,0.0,0.01,0.0,0.0,0.0,0.01,6.7200512886,-4.58210897446,-4.89663600922,0.01,0.0,0.0,0.0,0.01,0.0,0.0,0.0,0.01
1622095924358234661,126,1622095924357755219,foot_imu_link,0.892995655537,0.202240556479,-0.392385333776,-0.0876993238926,5.25678115016e-05,0.0,0.0,0.0,3.92405505899e-05,0.0,0.0,0.0,4.57512512471e-05,-1.40174424648,-3.36782312393,0.936858057976,0.01,0.0,0.0,0.0,0.01,0.0,0.0,0.0,0.01,6.36893415451,-4.37757968903,-5.12053585052,0.01,0.0,0.0,0.0,0.01,0.0,0.0,0.0,0.01
1622095924359130750,127,1622095924358640283,foot_imu_link,0.890517830849,0.202757835388,-0.39889678359,-0.0821498185396,5.26015520817e-05,0.0,0.0,0.0,3.92738279126e-05,0.0,0.0,0.0,4.57882955838e-05,-1.44940257072,-3.18132948875,0.714098453522,0.01,0.0,0.0,0.0,0.01,0.0,0.0,0.0,0.01,7.00681591034,-3.95858716965,-5.2882399559,0.01,0.0,0.0,0.0,0.01,0.0,0.0,0.0,0.01
1622095924367588848,128,1622095924367011430,foot_imu_link,0.888136386871,0.203627973795,-0.404756009579,-0.0769540518522,5.26352195158e-05,0.0,0.0,0.0,3.93070564713e-05,0.0,0.0,0.0,4.58252302016e-05,-1.43589150906,-2.91660046577,0.518427968025,0.01,0.0,0.0,0.0,0.01,0.0,0.0,0.0,0.01,6.78802204132,-3.5658864975,-5.84062862396,0.01,0.0,0.0,0.0,0.01,0.0,0.0,0.0,0.01
1622095924376132947,129,1622095924375420598,foot_imu_link,0.885906636715,0.204764544964,-0.409935563803,-0.0720682144165,5.2668850377e-05,0.0,0.0,0.0,3.93402525207e-05,0.0,0.0,0.0,4.58620429096e-05,-1.42997431755,-2.63565444946,0.36522012949,0.01,0.0,0.0,0.0,0.01,0.0,0.0,0.0,0.01,7.15774488449,-3.37802481651,-6.29539060593,0.01,0.0,0.0,0.0,0.01,0.0,0.0,0.0,0.01
1622095924376695506,130,1622095924376278960,foot_imu_link,0.883909404278,0.205988511443,-0.414318472147,-0.0679206028581,5.27023959013e-05,0.0,0.0,0.0,3.93734079335e-05,0.0,0.0,0.0,4.58987621534e-05,-1.25365829468,-2.25517821312,0.209033131599,0.01,0.0,0.0,0.0,0.01,0.0,0.0,0.0,0.01,6.59695196152,-3.19383525848,-6.60634469986,0.01,0.0,0.0,0.0,0.01,0.0,0.0,0.0,0.01
1622095924383180286,131,1622095924382668690,foot_imu_link,0.882196724415,0.207200363278,-0.417896002531,-0.0644974634051,5.27359576802e-05,0.0,0.0,0.0,3.94065633463e-05,0.0,0.0,0.0,4.59354326332e-05,-1.07001614571,-1.8641089201,0.0949330553412,0.01,0.0,0.0,0.0,0.01,0.0,0.0,0.0,0.01,7.18101882935,-2.90545082092,-6.78769493103,0.01,0.0,0.0,0.0,0.01,0.0,0.0,0.0,0.01
1622095924383976318,132,1622095924383511725,foot_imu_link,0.880811989307,0.208251446486,-0.420698076487,-0.0617646537721,5.27694503769e-05,0.0,0.0,0.0,3.94396821861e-05,0.0,0.0,0.0,4.59720259035e-05,-0.87220454216,-1.47415447235,0.0433161444962,0.01,0.0,0.0,0.0,0.01,0.0,0.0,0.0,0.01,7.03881502151,-2.66040921211,-6.96161365509,0.01,0.0,0.0,0.0,0.01,0.0,0.0,0.0,0.01
1622095924392267229,133,1622095924391680881,foot_imu_link,0.879823148251,0.209112763405,-0.422608911991,-0.0598734021187,5.28029105643e-05,0.0,0.0,0.0,3.9472764453e-05,0.0,0.0,0.0,4.60085257096e-05,-0.627534985542,-1.01818370819,-0.0203638039529,0.01,0.0,0.0,0.0,0.01,0.0,0.0,0.0,0.01,6.42764282227,-2.6978662014,-6.86092758179,0.01,0.0,0.0,0.0,0.01,0.0,0.0,0.0,0.01
1622095924400838591,134,1622095924400234059,foot_imu_link,0.879191756248,0.209823802114,-0.423737198114,-0.0586744472384,5.28363829427e-05,0.0,0.0,0.0,3.95058629746e-05,0.0,0.0,0.0,4.60450498977e-05,-0.43265068531,-0.621139287949,-0.0733894854784,0.01,0.0,0.0,0.0,0.01,0.0,0.0,0.0,0.01,6.85728597641,-2.55354642868,-6.7001376152,0.01,0.0,0.0,0.0,0.01,0.0,0.0,0.0,0.01
1622095924401765359,135,1622095924401145274,foot_imu_link,0.878912448883,0.210420563817,-0.424109011889,-0.0580321624875,5.28698350027e-05,0.0,0.0,0.0,3.95389533688e-05,0.0,0.0,0.0,4.60815334491e-05,-0.289311081171,-0.246011525393,-0.115759044886,0.01,0.0,0.0,0.0,0.01,0.0,0.0,0.0,0.01,7.26385879517,-2.54236793518,-6.4891576767,0.01,0.0,0.0,0.0,0.01,0.0,0.0,0.0,0.01
1622095924407915770,136,1622095924407383992,foot_imu_link,0.879025220871,0.210900843143,-0.423643112183,-0.057983495295,5.29032423626e-05,0.0,0.0,0.0,3.95720112537e-05,0.0,0.0,0.0,4.61179844912e-05,-0.1403863132,0.167702540755,-0.161919727921,0.01,0.0,0.0,0.0,0.01,0.0,0.0,0.0,0.01,6.93020582199,-2.62569975853,-6.46492385864,0.01,0.0,0.0,0.0,0.01,0.0,0.0,0.0,0.01
1622095924408724577,137,1622095924408205525,foot_imu_link,0.879526257515,0.211229681969,-0.42234390974,-0.058662366122,5.29367350592e-05,0.0,0.0,0.0,3.96050975843e-05,0.0,0.0,0.0,4.6154488361e-05,0.0617602467537,0.59136736393,-0.218585848808,0.01,0.0,0.0,0.0,0.01,0.0,0.0,0.0,0.01,6.9393491745,-2.65409851074,-6.21166133881,0.01,0.0,0.0,0.0,0.01,0.0,0.0,0.0,0.01
1622095924417203045,138,1622095924416579461,foot_imu_link,0.880401313305,0.211444109678,-0.420234322548,-0.0599001832306,5.29702115013e-05,0.0,0.0,0.0,3.96381920422e-05,0.0,0.0,0.0,4.6191000358e-05,0.20047827065,0.989565908909,-0.260148227215,0.01,0.0,0.0,0.0,0.01,0.0,0.0,0.0,0.01,6.34282016754,-2.60227155685,-5.77282619476,0.01,0.0,0.0,0.0,0.01,0.0,0.0,0.0,0.01
1622095924423869113,139,1622095924423196017,foot_imu_link,0.881596982479,0.211524620652,-0.417411893606,-0.0617373548448,5.3003692007e-05,0.0,0.0,0.0,3.96712702454e-05,0.0,0.0,0.0,4.62275408007e-05,0.366173028946,1.34869325161,-0.303758442402,0.01,0.0,0.0,0.0,0.01,0.0,0.0,0.0,0.01,5.80381536484,-2.39936757088,-5.03862142563,0.01,0.0,0.0,0.0,0.01,0.0,0.0,0.0,0.01
1622095924424575611,140,1622095924424048118,foot_imu_link,0.883030414581,0.211523771286,-0.413993805647,-0.0642183348536,5.30372009583e-05,0.0,0.0,0.0,3.97043647033e-05,0.0,0.0,0.0,4.62641259437e-05,0.550502300262,1.65465891361,-0.37708184123,0.01,0.0,0.0,0.0,0.01,0.0,0.0,0.0,0.01,5.27204990387,-2.5940053463,-4.51578235626,0.01,0.0,0.0,0.0,0.01,0.0,0.0,0.0,0.01
1622095924433043359,141,1622095924432477292,foot_imu_link,0.884694457054,0.211472675204,-0.4099791646,-0.0671731457114,5.30707586736e-05,0.0,0.0,0.0,3.97374916705e-05,0.0,0.0,0.0,4.63008004872e-05,0.669690191746,1.9449878931,-0.43370243907,0.01,0.0,0.0,0.0,0.01,0.0,0.0,0.0,0.01,5.14294290543,-1.98666846752,-4.13385820389,0.01,0.0,0.0,0.0,0.01,0.0,0.0,0.0,0.01
1622095924433933644,142,1622095924433509342,foot_imu_link,0.886501729488,0.211339622736,-0.405521690845,-0.0707284510136,5.31043529618e-05,0.0,0.0,0.0,3.9770626765e-05,0.0,0.0,0.0,4.63375522403e-05,0.85425812006,2.17773652077,-0.502663731575,0.01,0.0,0.0,0.0,0.01,0.0,0.0,0.0,0.01,4.80935049057,-1.68779850006,-3.12332463264,0.01,0.0,0.0,0.0,0.01,0.0,0.0,0.0,0.01
1622095924441970727,143,1622095924441348199,foot_imu_link,0.888431251049,0.211069971323,-0.400643527508,-0.0749945938587,5.31380407143e-05,0.0,0.0,0.0,3.98038187507e-05,0.0,0.0,0.0,4.63744055849e-05,1.08956253529,2.41103959084,-0.571374237537,0.01,0.0,0.0,0.0,0.01,0.0,0.0,0.0,0.01,4.61169338226,-1.20429289341,-2.96494317055,0.01,0.0,0.0,0.0,0.01,0.0,0.0,0.0,0.01
1622095924448707703,144,1622095924448162027,foot_imu_link,0.890462934971,0.210798531771,-0.395304888487,-0.0798358917236,5.31717040847e-05,0.0,0.0,0.0,3.98369985455e-05,0.0,0.0,0.0,4.64113117571e-05,1.25258231163,2.64027309418,-0.668238520622,0.01,0.0,0.0,0.0,0.01,0.0,0.0,0.0,0.01,4.26429033279,-1.08137321472,-2.66045379639,0.01,0.0,0.0,0.0,0.01,0.0,0.0,0.0,0.01
1622095924449609905,145,1622095924449162381,foot_imu_link,0.892594516277,0.210569664836,-0.389470607042,-0.0851361751556,5.32054731104e-05,0.0,0.0,0.0,3.98702271042e-05,0.0,0.0,0.0,4.64483479665e-05,1.36408174038,2.86942958832,-0.76324903965,0.01,0.0,0.0,0.0,0.01,0.0,0.0,0.0,0.01,4.17715549469,-0.68019258976,-2.31313610077,0.01,0.0,0.0,0.0,0.01,0.0,0.0,0.0,0.01
1622095924457982971,146,1622095924457351107,foot_imu_link,0.894823074341,0.210391014814,-0.38310328126,-0.0908807739615,5.3239266518e-05,0.0,0.0,0.0,3.99034841085e-05,0.0,0.0,0.0,4.64854735764e-05,1.46642661095,3.10992884636,-0.860185146332,0.01,0.0,0.0,0.0,0.01,0.0,0.0,0.0,0.01,3.96585655212,-0.446685016155,-1.92822730541,0.01,0.0,0.0,0.0,0.01,0.0,0.0,0.0,0.01
1622095924466213206,147,1622095924465602977,foot_imu_link,0.897140324116,0.210328832269,-0.376163542271,-0.0969646126032,5.32731655809e-05,0.0,0.0,0.0,3.99368061315e-05,0.0,0.0,0.0,4.65227251598e-05,1.51889121532,3.35333061218,-0.96735316515,0.01,0.0,0.0,0.0,0.01,0.0,0.0,0.0,0.01,3.66584348679,-0.141321033239,-1.55153918266,0.01,0.0,0.0,0.0,0.01,0.0,0.0,0.0,0.01
1622095924467041571,148,1622095924466572178,foot_imu_link,0.899520754814,0.210399851203,-0.368645429611,-0.103416271508,5.33070646437e-05,0.0,0.0,0.0,3.99701037724e-05,0.0,0.0,0.0,4.65600539528e-05,1.57880210876,3.59394359589,-1.08701705933,0.01,0.0,0.0,0.0,0.01,0.0,0.0,0.0,0.01,3.43440675735,0.0417308583856,-1.18706882,0.01,0.0,0.0,0.0,0.01,0.0,0.0,0.0,0.01
1622095924473168821,149,1622095924472691227,foot_imu_link,0.90194940567,0.210772305727,-0.360481798649,-0.110069349408,5.33411059347e-05,0.0,0.0,0.0,4.00035151959e-05,0.0,0.0,0.0,4.65975615469e-05,1.55275094509,3.84299182892,-1.24957311153,0.01,0.0,0.0,0.0,0.01,0.0,0.0,0.0,0.01,3.25547170639,0.279451608658,-0.813256621361,0.01,0.0,0.0,0.0,0.01,0.0,0.0,0.0,0.01
1622095924474047086,150,1622095924473554212,foot_imu_link,0.904323518276,0.212225675583,-0.3513661623,-0.11705237627,5.33751512893e-05,0.0,0.0,0.0,4.00369022374e-05,0.0,0.0,0.0,4.66351422869e-05,1.43779528141,4.15535449982,-1.73301804066,0.01,0.0,0.0,0.0,0.01,0.0,0.0,0.0,0.01,4.00827360153,-0.0727154314518,-0.86617231369,0.01,0.0,0.0,0.0,0.01,0.0,0.0,0.0,0.01
1622095924482626011,151,1622095924482010473,foot_imu_link,0.90697735548,0.214056909084,-0.340680420399,-0.12453366071,5.34092941718e-05,0.0,0.0,0.0,4.00703299155e-05,0.0,0.0,0.0,4.66728855733e-05,1.41575407982,4.78778171539,-1.98756277561,0.01,0.0,0.0,0.0,0.01,0.0,0.0,0.0,0.01,3.35082483292,3.04807806015,-1.01553082466,0.01,0.0,0.0,0.0,0.01,0.0,0.0,0.0,0.01
1622095924490880228,152,1622095924490299616,foot_imu_link,0.909371554852,0.215745344758,-0.330654382706,-0.131015777588,5.34435102002e-05,0.0,0.0,0.0,4.01038022939e-05,0.0,0.0,0.0,4.67107873426e-05,1.1441245079,4.43379068375,-1.79225218296,0.01,0.0,0.0,0.0,0.01,0.0,0.0,0.0,0.01,0.100674934685,2.40356326103,2.91203141212,0.01,0.0,0.0,0.0,0.01,0.0,0.0,0.0,0.01
1622095924491584205,153,1622095924491079651,foot_imu_link,0.912037968636,0.218210607767,-0.320041000843,-0.134702086449,5.34777871835e-05,0.0,0.0,0.0,4.01373153089e-05,0.0,0.0,0.0,4.67488150853e-05,-0.040759254247,4.40316963196,-1.71101915836,0.01,0.0,0.0,0.0,0.01,0.0,0.0,0.0,0.01,-2.14233016968,0.478164255619,2.03966736794,0.01,0.0,0.0,0.0,0.01,0.0,0.0,0.0,0.01
1622095924498003952,154,1622095924497574216,foot_imu_link,0.914884567261,0.221800640225,-0.308189988136,-0.137148693204,5.35121129308e-05,0.0,0.0,0.0,4.01708283239e-05,0.0,0.0,0.0,4.67869891199e-05,-0.754908323288,4.70765018463,-2.01173305511,0.01,0.0,0.0,0.0,0.01,0.0,0.0,0.0,0.01,-1.50657021999,0.467973411083,1.06066608429,0.01,0.0,0.0,0.0,0.01,0.0,0.0,0.0,0.01
1622095924498837908,155,1622095924498411962,foot_imu_link,0.917834341526,0.22611618042,-0.295009762049,-0.139359295368,5.35465321423e-05,0.0,0.0,0.0,4.02043779118e-05,0.0,0.0,0.0,4.68253663375e-05,-1.05377852917,5.14480924606,-2.31131148338,0.01,0.0,0.0,0.0,0.01,0.0,0.0,0.0,0.01,-1.14047408104,2.16216993332,0.920950889587,0.01,0.0,0.0,0.0,0.01,0.0,0.0,0.0,0.01
1622095924507177026,156,1622095924506667551,foot_imu_link,0.920697152615,0.230993032455,-0.280709862709,-0.141989082098,5.3580996054e-05,0.0,0.0,0.0,4.02379193724e-05,0.0,0.0,0.0,4.68639142289e-05,-1.06344544888,5.55598258972,-2.64050531387,0.01,0.0,0.0,0.0,0.01,0.0,0.0,0.0,0.01,-1.80583167076,3.40517878532,2.95738935471,0.01,0.0,0.0,0.0,0.01,0.0,0.0,0.0,0.01
1622095924515819177,157,1622095924515230200,foot_imu_link,0.923517763615,0.236524924636,-0.265342980623,-0.144097313285,5.36155331117e-05,0.0,0.0,0.0,4.02714811514e-05,0.0,0.0,0.0,4.69026612397e-05,-1.42518389225,5.85769319534,-2.88761210442,0.01,0.0,0.0,0.0,0.01,0.0,0.0,0.0,0.01,-2.30139136314,4.11961174011,5.62630987167,0.01,0.0,0.0,0.0,0.01,0.0,0.0,0.0,0.01
1622095924516546893,158,1622095924516058093,foot_imu_link,0.926279127598,0.242452397943,-0.249147415161,-0.145428314805,5.36500904876e-05,0.0,0.0,0.0,4.03050185483e-05,0.0,0.0,0.0,4.69415992425e-05,-1.82886219025,6.0580368042,-3.00170993805,0.01,0.0,0.0,0.0,0.01,0.0,0.0,0.0,0.01,-3.51178050041,5.02092313766,6.76948785782,0.01,0.0,0.0,0.0,0.01,0.0,0.0,0.0,0.01
1622095924523101423,159,1622095924522378137,foot_imu_link,0.929014444351,0.248012110591,-0.232315585017,-0.1464638412,5.36847372642e-05,0.0,0.0,0.0,4.03385925183e-05,0.0,0.0,0.0,4.69807810651e-05,-1.96268641949,6.28772258759,-2.87718892097,0.01,0.0,0.0,0.0,0.01,0.0,0.0,0.0,0.01,-4.16967153549,5.87467861176,8.09121704102,0.01,0.0,0.0,0.0,0.01,0.0,0.0,0.0,0.01
1622095924523903414,160,1622095924523311760,foot_imu_link,0.931615650654,0.252928674221,-0.215308427811,-0.14751791954,5.37193962317e-05,0.0,0.0,0.0,4.03721461699e-05,0.0,0.0,0.0,4.70201457524e-05,-1.90540885925,6.37996435165,-2.66356158257,0.01,0.0,0.0,0.0,0.01,0.0,0.0,0.0,0.01,-4.26969814301,6.48101425171,9.3778886795,0.01,0.0,0.0,0.0,0.01,0.0,0.0,0.0,0.01
1622095924532082242,161,1622095924531477587,foot_imu_link,0.934105336666,0.257165312767,-0.19809140265,-0.148569583893,5.37541039631e-05,0.0,0.0,0.0,4.04056998215e-05,0.0,0.0,0.0,4.70596892408e-05,-1.86097192764,6.48433637619,-2.43279671669,0.01,0.0,0.0,0.0,0.01,0.0,0.0,0.0,0.01,-4.728328228,6.53887319565,10.6305379868,0.01,0.0,0.0,0.0,0.01,0.0,0.0,0.0,0.01
1622095924538665540,162,1622095924538161088,foot_imu_link,0.936407268047,0.260672420263,-0.181072130799,-0.149680480361,5.37888442038e-05,0.0,0.0,0.0,4.04392941097e-05,0.0,0.0,0.0,4.70994562306e-05,-1.75076043606,6.44912433624,-2.17327141762,0.01,0.0,0.0,0.0,0.01,0.0,0.0,0.0,0.01,-4.36851739883,6.70468664169,12.083313942,0.01,0.0,0.0,0.0,0.01,0.0,0.0,0.0,0.01
1622095924539592286,163,1622095924539039553,foot_imu_link,0.938510417938,0.263403981924,-0.16458158195,-0.150762885809,5.38236088265e-05,0.0,0.0,0.0,4.0472876207e-05,0.0,0.0,0.0,4.71393817032e-05,-1.63799107075,6.2784705162,-1.87015390396,0.01,0.0,0.0,0.0,0.01,0.0,0.0,0.0,0.01,-4.0221362114,6.73272275925,13.4386310577,0.01,0.0,0.0,0.0,0.01,0.0,0.0,0.0,0.01
1622095924547807717,164,1622095924547247385,foot_imu_link,0.94050103426,0.26530611515,-0.148568496108,-0.151650860906,5.38583856402e-05,0.0,0.0,0.0,4.05064664315e-05,0.0,0.0,0.0,4.71794453403e-05,-1.59947836399,6.12277412415,-1.52873063087,0.01,0.0,0.0,0.0,0.01,0.0,0.0,0.0,0.01,-4.26582574844,6.47370529175,13.6085577011,0.01,0.0,0.0,0.0,0.01,0.0,0.0,0.0,0.01
1622095924548483920,165,1622095924548077721,foot_imu_link,0.942457020283,0.266461670399,-0.132884114981,-0.152035370469,5.38931868358e-05,0.0,0.0,0.0,4.05400769744e-05,0.0,0.0,0.0,4.72196552691e-05,-1.70719397068,5.98742961884,-1.20232665539,0.01,0.0,0.0,0.0,0.01,0.0,0.0,0.0,0.01,-4.66128444672,5.64896774292,13.9837913513,0.01,0.0,0.0,0.0,0.01,0.0,0.0,0.0,0.01
1622095924556908607,166,1622095924556337709,foot_imu_link,0.944461286068,0.267162531614,-0.117222324014,-0.151248142123,5.39280124134e-05,0.0,0.0,0.0,4.05737118992e-05,0.0,0.0,0.0,4.72599871078e-05,-2.12526202202,5.88459205627,-0.960372686386,0.01,0.0,0.0,0.0,0.01,0.0,0.0,0.0,0.01,-3.89002037048,4.63358640671,13.4330310822,0.01,0.0,0.0,0.0,0.01,0.0,0.0,0.0,0.01
1622095924563799043,167,1622095924563190245,foot_imu_link,0.946216285229,0.267010718584,-0.102175526321,-0.151460215449,5.3962837991e-05,0.0,0.0,0.0,4.0607383397e-05,0.0,0.0,0.0,4.73004489837e-05,-1.62581455708,5.79435920715,-0.673276245594,0.01,0.0,0.0,0.0,0.01,0.0,0.0,0.0,0.01,-3.82394933701,4.7939209938,12.8438911438,0.01,0.0,0.0,0.0,0.01,0.0,0.0,0.0,0.01
1622095924564550921,168,1622095924564122366,foot_imu_link,0.947721600533,0.266438573599,-0.0875694155693,-0.1522038728,5.39977042052e-05,0.0,0.0,0.0,4.06410914678e-05,0.0,0.0,0.0,4.73410287058e-05,-1.34692502022,5.70859527588,-0.539915323257,0.01,0.0,0.0,0.0,0.01,0.0,0.0,0.0,0.01,-4.06785964966,3.47141671181,14.2840919495,0.01,0.0,0.0,0.0,0.01,0.0,0.0,0.0,0.01
1622095924572657367,169,1622095924572108171,foot_imu_link,0.949041247368,0.265304535627,-0.0737928599119,-0.153261065483,5.40325419738e-05,0.0,0.0,0.0,4.06747873475e-05,0.0,0.0,0.0,4.73816246825e-05,-1.10855507851,5.4504699707,-0.30473357439,0.01,0.0,0.0,0.0,0.01,0.0,0.0,0.0,0.01,-5.11682748795,4.87145328522,15.5386571884,0.01,0.0,0.0,0.0,0.01,0.0,0.0,0.0,0.01
1622095924581181774,170,1622095924580565012,foot_imu_link,0.950304508209,0.263610243797,-0.0608633570373,-0.154034852982,5.40673716151e-05,0.0,0.0,0.0,4.07085198002e-05,0.0,0.0,0.0,4.7422318187e-05,-1.10580146313,5.13157320023,-0.0385926365852,0.01,0.0,0.0,0.0,0.01,0.0,0.0,0.0,0.01,-4.99140119553,4.77301168442,16.1854858398,0.01,0.0,0.0,0.0,0.01,0.0,0.0,0.0,0.01
1622095924581873353,171,1622095924581393536,foot_imu_link,0.951423764229,0.261565417051,-0.0486523769796,-0.154949218035,5.41022256384e-05,0.0,0.0,0.0,4.07423050805e-05,0.0,0.0,0.0,4.74630726465e-05,-0.958580374718,4.89145851135,0.121445469558,0.01,0.0,0.0,0.0,0.01,0.0,0.0,0.0,0.01,-4.81960725784,2.54530858994,15.3286991119,0.01,0.0,0.0,0.0,0.01,0.0,0.0,0.0,0.01
1622095924588445589,172,1622095924587824461,foot_imu_link,0.952190577984,0.259770125151,-0.0365135110915,-0.156586781144,5.41370471523e-05,0.0,0.0,0.0,4.07761025518e-05,0.0,0.0,0.0,4.75038555517e-05,-0.659573316574,4.9163942337,-0.0231411326677,0.01,0.0,0.0,0.0,0.01,0.0,0.0,0.0,0.01,-5.00226688385,0.662889897823,12.9781513214,0.01,0.0,0.0,0.0,0.01,0.0,0.0,0.0,0.01
1622095924589093492,173,1622095924588648873,foot_imu_link,0.953211724758,0.257193297148,-0.0234071947634,-0.157134220004,5.41718971119e-05,0.0,0.0,0.0,4.08099569144e-05,0.0,0.0,0.0,4.75446831571e-05,-1.18003666401,5.22619485855,0.261099338531,0.01,0.0,0.0,0.0,0.01,0.0,0.0,0.0,0.01,-7.68914985657,4.4453792572,10.1233291626,0.01,0.0,0.0,0.0,0.01,0.0,0.0,0.0,0.01
1622095924597177291,174,1622095924596725546,foot_imu_link,0.953901290894,0.254658311605,-0.0104199787602,-0.158470585942,5.42067348805e-05,0.0,0.0,0.0,4.08438234679e-05,0.0,0.0,0.0,4.75855148261e-05,-0.844743490219,5.25124311447,0.20808172226,0.01,0.0,0.0,0.0,0.01,0.0,0.0,0.0,0.01,-8.07087039948,0.0271379649639,13.3228149414,0.01,0.0,0.0,0.0,0.01,0.0,0.0,0.0,0.01
1622095924605885631,175,1622095924605311782,foot_imu_link,0.954380095005,0.252670675516,0.0016446687514,-0.159102424979,5.42415767127e-05,0.0,0.0,0.0,4.087775504e-05,0.0,0.0,0.0,4.76264074501e-05,-1.01100170612,4.79967832565,0.0387256778777,0.01,0.0,0.0,0.0,0.01,0.0,0.0,0.0,0.01,-7.18520927429,0.030388712883,17.4980564117,0.01,0.0,0.0,0.0,0.01,0.0,0.0,0.0,0.01
1622095924606467793,176,1622095924606047069,foot_imu_link,0.954878211021,0.250957459211,0.0124485529959,-0.158344879746,5.42763575901e-05,0.0,0.0,0.0,4.09116662938e-05,0.0,0.0,0.0,4.76672635011e-05,-1.4139405489,4.15570783615,0.0158714689314,0.01,0.0,0.0,0.0,0.01,0.0,0.0,0.0,0.01,-5.60178184509,2.12233781815,19.1624908447,0.01,0.0,0.0,0.0,0.01,0.0,0.0,0.0,0.01
1622095924612971109,177,1622095924612508876,foot_imu_link,0.955561757088,0.249269247055,0.0219295360148,-0.155838608742,5.43111465947e-05,0.0,0.0,0.0,4.09456385026e-05,0.0,0.0,0.0,4.77081398704e-05,-1.96077644825,3.47318100929,0.100334301591,0.01,0.0,0.0,0.0,0.01,0.0,0.0,0.0,0.01,-5.32449436188,2.30400633812,19.2797813416,0.01,0.0,0.0,0.0,0.01,0.0,0.0,0.0,0.01
1622095924613647253,178,1622095924613251482,foot_imu_link,0.95630979538,0.247674494982,0.0296193882823,-0.152484983206,5.43458868354e-05,0.0,0.0,0.0,4.0979614775e-05,0.0,0.0,0.0,4.77490243671e-05,-2.10976839066,2.6980650425,0.176227509975,0.01,0.0,0.0,0.0,0.01,0.0,0.0,0.0,0.01,-4.71096229553,2.81592273712,19.134349823,0.01,0.0,0.0,0.0,0.01,0.0,0.0,0.0,0.01
1622095924622130127,179,1622095924621673041,foot_imu_link,0.957153916359,0.246021911502,0.0355148650706,-0.1485542804,5.43806270762e-05,0.0,0.0,0.0,4.10136032383e-05,0.0,0.0,0.0,4.77899291821e-05,-2.1582839489,1.95608127117,0.309674620628,0.01,0.0,0.0,0.0,0.01,0.0,0.0,0.0,0.01,-5.42087364197,1.78024363518,17.948677063,0.01,0.0,0.0,0.0,0.01,0.0,0.0,0.0,0.01
1622095924630866135,180,1622095924630189840,foot_imu_link,0.957962930202,0.244433969259,0.0397456213832,-0.144842296839,5.44153591896e-05,0.0,0.0,0.0,4.10476160837e-05,0.0,0.0,0.0,4.7830882761e-05,-1.90809726715,1.3372900486,0.383539706469,0.01,0.0,0.0,0.0,0.01,0.0,0.0,0.0,0.01,-4.77342128754,1.34150648117,18.355550766,0.01,0.0,0.0,0.0,0.01,0.0,0.0,0.0,0.01
1622095924631568817,181,1622095924631103577,foot_imu_link,0.958894789219,0.242737770081,0.0421212352812,-0.140801787376,5.4450091303e-05,0.0,0.0,0.0,4.1081653311e-05,0.0,0.0,0.0,4.78718485308e-05,-1.8619030714,0.598877191544,0.539018332958,0.01,0.0,0.0,0.0,0.01,0.0,0.0,0.0,0.01,-3.46974086761,0.372247576714,19.5694465637,0.01,0.0,0.0,0.0,0.01,0.0,0.0,0.0,0.01
1622095924637826879,182,1622095924637318072,foot_imu_link,0.959827661514,0.241186514497,0.0431288853288,-0.136747583747,5.44847665251e-05,0.0,0.0,0.0,4.11156377107e-05,0.0,0.0,0.0,4.79128021097e-05,-1.73093795776,0.0642541199923,0.56096726656,0.01,0.0,0.0,0.0,0.01,0.0,0.0,0.0,0.01,-3.17344665527,-0.337831377983,16.2041912079,0.01,0.0,0.0,0.0,0.01,0.0,0.0,0.0,0.01
1622095924638589090,183,1622095924638205568,foot_imu_link,0.960715293884,0.239596650004,0.0432386025786,-0.13322930038,5.45194864475e-05,0.0,0.0,0.0,4.11496708744e-05,0.0,0.0,0.0,4.79538288345e-05,-1.43733632565,-0.225568592548,0.629282832146,0.01,0.0,0.0,0.0,0.01,0.0,0.0,0.0,0.01,-3.05522036552,-0.311173886061,15.0365934372,0.01,0.0,0.0,0.0,0.01,0.0,0.0,0.0,0.01
1622095924646963138,184,1622095924646375627,foot_imu_link,0.961645901203,0.237965419888,0.0423448607326,-0.129678413272,5.45542023063e-05,0.0,0.0,0.0,4.11836999743e-05,0.0,0.0,0.0,4.79948758776e-05,-1.35668325424,-0.612949192524,0.702274680138,0.01,0.0,0.0,0.0,0.01,0.0,0.0,0.0,0.01,-2.53803038597,-0.381921976805,14.7023296356,0.01,0.0,0.0,0.0,0.01,0.0,0.0,0.0,0.01
1622095924653976655,185,1622095924653120212,foot_imu_link,0.962591171265,0.236413270235,0.0407640524209,-0.125957816839,5.45889506743e-05,0.0,0.0,0.0,4.1217745329e-05,0.0,0.0,0.0,4.80359635574e-05,-1.35597026348,-0.897651016712,0.70611590147,0.01,0.0,0.0,0.0,0.01,0.0,0.0,0.0,0.01,-2.47709012032,-0.916300535202,13.1986579895,0.01,0.0,0.0,0.0,0.01,0.0,0.0,0.0,0.01
1622095924654314220,186,1622095924653863119,foot_imu_link,0.963456988335,0.235131055117,0.0389581471682,-0.122255206108,5.46236746604e-05,0.0,0.0,0.0,4.1251750047e-05,0.0,0.0,0.0,4.80770553007e-05,-1.31935715675,-0.995003938675,0.606247901917,0.01,0.0,0.0,0.0,0.01,0.0,0.0,0.0,0.01,-2.35582137108,-1.4249740839,11.5680246353,0.01,0.0,0.0,0.0,0.01,0.0,0.0,0.0,0.01
1622095924662701906,187,1622095924662186107,foot_imu_link,0.964230537415,0.234200537205,0.0371538959444,-0.118445113301,5.46584474104e-05,0.0,0.0,0.0,4.12857954016e-05,0.0,0.0,0.0,4.81181958081e-05,-1.35122573376,-1.02039027214,0.460394531488,0.01,0.0,0.0,0.0,0.01,0.0,0.0,0.0,0.01,-2.3963124752,-1.61451816559,10.5015306473,0.01,0.0,0.0,0.0,0.01,0.0,0.0,0.0,0.01
1622095924663556236,188,1622095924663103969,foot_imu_link,0.964900553226,0.233663439751,0.0356179624796,-0.114454440773,5.46932160967e-05,0.0,0.0,0.0,4.13198041833e-05,0.0,0.0,0.0,4.8159364761e-05,-1.43468785286,-0.950599074364,0.283358097076,0.01,0.0,0.0,0.0,0.01,0.0,0.0,0.0,0.01,-2.53642702103,-1.15031135082,9.68051052094,0.01,0.0,0.0,0.0,0.01,0.0,0.0,0.0,0.01
1622095924671945540,189,1622095924671444400,foot_imu_link,0.965473353863,0.233483761549,0.0344079323113,-0.110284604132,5.47279807194e-05,0.0,0.0,0.0,4.13538048377e-05,0.0,0.0,0.0,4.82005499686e-05,-1.52505457401,-0.856697916985,0.118904918432,0.01,0.0,0.0,0.0,0.01,0.0,0.0,0.0,0.01,-2.63643407822,-0.783496141434,9.36059570312,0.01,0.0,0.0,0.0,0.01,0.0,0.0,0.0,0.01
1622095924678596238,190,1622095924677986492,foot_imu_link,0.965959668159,0.233714267612,0.0335970148444,-0.10569242388,5.47627859787e-05,0.0,0.0,0.0,4.1387805492e-05,0.0,0.0,0.0,4.82418001948e-05,-1.71527016163,-0.758647203445,-0.0709476992488,0.01,0.0,0.0,0.0,0.01,0.0,0.0,0.0,0.01,-2.59593153,-0.647316753864,9.08352565765,0.01,0.0,0.0,0.0,0.01,0.0,0.0,0.0,0.01
1622095924679474184,191,1622095924678978248,foot_imu_link,0.966347396374,0.234329938889,0.0332328602672,-0.100786231458,5.47975871744e-05,0.0,0.0,0.0,4.1421822401e-05,0.0,0.0,0.0,4.82830788666e-05,-1.87082970142,-0.631024956703,-0.252314984798,0.01,0.0,0.0,0.0,0.01,0.0,0.0,0.0,0.01,-2.67269206047,-0.114888191223,8.49481678009,0.01,0.0,0.0,0.0,0.01,0.0,0.0,0.0,0.01
1622095924687594878,192,1622095924687132489,foot_imu_link,0.966628491879,0.235255494714,0.0333588533103,-0.0957677960396,5.48323558607e-05,0.0,0.0,0.0,4.14557539732e-05,0.0,0.0,0.0,4.83243250291e-05,-1.95024430752,-0.462672203779,-0.403122782707,0.01,0.0,0.0,0.0,0.01,0.0,0.0,0.0,0.01,-2.73264527321,0.568863987923,7.60737895966,0.01,0.0,0.0,0.0,0.01,0.0,0.0,0.0,0.01
1622095924696093522,193,1622095924695472634,foot_imu_link,0.966796517372,0.236402288079,0.0340590029955,-0.0908765494823,5.48671773747e-05,0.0,0.0,0.0,4.14897546275e-05,0.0,0.0,0.0,4.83656809105e-05,-1.94706594944,-0.235689848661,-0.519336700439,0.01,0.0,0.0,0.0,0.01,0.0,0.0,0.0,0.01,-2.81458640099,1.07669854164,6.86148309708,0.01,0.0,0.0,0.0,0.01,0.0,0.0,0.0,0.01
1622095924696878956,194,1622095924696390276,foot_imu_link,0.966864585876,0.237670004368,0.0353011116385,-0.0862542316318,5.49019745067e-05,0.0,0.0,0.0,4.15237187089e-05,0.0,0.0,0.0,4.84070449192e-05,-1.89131641388,-0.00388447009027,-0.592283248901,0.01,0.0,0.0,0.0,0.01,0.0,0.0,0.0,0.01,-2.82590413094,1.60143518448,6.46706390381,0.01,0.0,0.0,0.0,0.01,0.0,0.0,0.0,0.01
1622095924703416775,195,1622095924702763372,foot_imu_link,0.966863274574,0.238948866725,0.037077780813,-0.0818787068129,5.4936743193e-05,0.0,0.0,0.0,4.15576421537e-05,0.0,0.0,0.0,4.84484048642e-05,-1.84303092957,0.227001726627,-0.617812156677,0.01,0.0,0.0,0.0,0.01,0.0,0.0,0.0,0.01,-2.60561680794,1.96345067024,6.3398065567,0.01,0.0,0.0,0.0,0.01,0.0,0.0,0.0,0.01
1622095924704164557,196,1622095924703678462,foot_imu_link,0.966804802418,0.240137919784,0.0393874421716,-0.0779165625572,5.49714590518e-05,0.0,0.0,0.0,4.15915330892e-05,0.0,0.0,0.0,4.84897729365e-05,-1.7325463295,0.476052224636,-0.599510133266,0.01,0.0,0.0,0.0,0.01,0.0,0.0,0.0,0.01,-2.17664694786,2.38105010986,6.18871259689,0.01,0.0,0.0,0.0,0.01,0.0,0.0,0.0,0.01
1622095924712403372,197,1622095924711836860,foot_imu_link,0.966709792614,0.241111204028,0.0422440692782,-0.0745182335377,5.50062602474e-05,0.0,0.0,0.0,4.16254727887e-05,0.0,0.0,0.0,4.85312060275e-05,-1.57074058056,0.74946808815,-0.528201580048,0.01,0.0,0.0,0.0,0.01,0.0,0.0,0.0,0.01,-1.85109388828,2.7140378952,6.13930940628,0.01,0.0,0.0,0.0,0.01,0.0,0.0,0.0,0.01
1622095924720945497,198,1622095924720320265,foot_imu_link,0.96660387516,0.24172025919,0.045634008944,-0.0718739703298,5.50409923608e-05,0.0,0.0,0.0,4.16593596605e-05,0.0,0.0,0.0,4.85726350547e-05,-1.33681476116,1.03999876976,-0.391693413258,0.01,0.0,0.0,0.0,0.01,0.0,0.0,0.0,0.01,-1.49241280556,3.0512509346,6.19376850128,0.01,0.0,0.0,0.0,0.01,0.0,0.0,0.0,0.01
1622095924721687230,199,1622095924721246155,foot_imu_link,0.966510415077,0.241887062788,0.0494455210865,-0.0700242221355,5.50756879012e-05,0.0,0.0,0.0,4.16932221504e-05,0.0,0.0,0.0,4.86140356364e-05,-1.07778871059,1.29147672653,-0.216888234019,0.01,0.0,0.0,0.0,0.01,0.0,0.0,0.0,0.01,-1.05591082573,3.10798335075,6.60594081879,0.01,0.0,0.0,0.0,0.01,0.0,0.0,0.0,0.01
1622095924728162783,200,1622095924727606561,foot_imu_link,0.966437578201,0.241637796164,0.0535754784942,-0.0688435658813,5.51103956327e-05,0.0,0.0,0.0,4.17271130859e-05,0.0,0.0,0.0,4.86554809183e-05,-0.858904063702,1.49083602428,-0.0497121922672,0.01,0.0,0.0,0.0,0.01,0.0,0.0,0.0,0.01,-0.876511693001,2.90294194221,6.85195302963,0.01,0.0,0.0,0.0,0.01,0.0,0.0,0.0,0.01
1622095924728814541,201,1622095924728436178,foot_imu_link,0.966355323792,0.241077542305,0.0580524429679,-0.0683299824595,5.51450667912e-05,0.0,0.0,0.0,4.17609958941e-05,0.0,0.0,0.0,4.86969140092e-05,-0.641115367413,1.69859147072,0.0743822008371,0.01,0.0,0.0,0.0,0.01,0.0,0.0,0.0,0.01,-0.73890709877,2.56688094139,6.9609041214,0.01,0.0,0.0,0.0,0.01,0.0,0.0,0.0,0.01
1622095924737114580,202,1622095924736683676,foot_imu_link,0.966233253479,0.240309014916,0.0628128126264,-0.0685527920723,5.5179733886e-05,0.0,0.0,0.0,4.17948868296e-05,0.0,0.0,0.0,4.87383633548e-05,-0.387366712093,1.88542854786,0.160250768065,0.01,0.0,0.0,0.0,0.01,0.0,0.0,0.0,0.01,-0.819740891457,2.385440588,7.40056037903,0.01,0.0,0.0,0.0,0.01,0.0,0.0,0.0,0.01
1622095924745580262,203,1622095924744957670,foot_imu_link,0.966054737568,0.239484220743,0.0678536519408,-0.0691483691335,5.52144050445e-05,0.0,0.0,0.0,4.18287980834e-05,0.0,0.0,0.0,4.87797842548e-05,-0.270100712776,2.03221654892,0.178275540471,0.01,0.0,0.0,0.0,0.01,0.0,0.0,0.0,0.01,-0.95830988884,1.9582426548,8.01699447632,0.01,0.0,0.0,0.0,0.01,0.0,0.0,0.0,0.01
1622095924746284078,204,1622095924745851396,foot_imu_link,0.965818762779,0.23865583539,0.0731979832053,-0.0698540434241,5.52490477573e-05,0.0,0.0,0.0,4.18627255918e-05,0.0,0.0,0.0,4.88212336003e-05,-0.255255401134,2.16252279282,0.168711140752,0.01,0.0,0.0,0.0,0.01,0.0,0.0,0.0,0.01,-1.19790482521,1.91313576698,8.57263565063,0.01,0.0,0.0,0.0,0.01,0.0,0.0,0.0,0.01
1622095924752799651,205,1622095924752275001,foot_imu_link,0.965531289577,0.237846255302,0.0788502320647,-0.0704354420304,5.52836904702e-05,0.0,0.0,0.0,4.18966693549e-05,0.0,0.0,0.0,4.88626666913e-05,-0.330605655909,2.26972723007,0.144348472357,0.01,0.0,0.0,0.0,0.01,0.0,0.0,0.0,0.01,-1.48377490044,2.04490089417,8.86298942566,0.01,0.0,0.0,0.0,0.01,0.0,0.0,0.0,0.01
1622095924753771342,206,1622095924753227592,foot_imu_link,0.965185940266,0.237077876925,0.084771849215,-0.0708798095584,5.53182600371e-05,0.0,0.0,0.0,4.1930600927e-05,0.0,0.0,0.0,4.89040754002e-05,-0.406287640333,2.36228990555,0.111126869917,0.01,0.0,0.0,0.0,0.01,0.0,0.0,0.0,0.01,-1.72045385838,1.76303625107,9.02305030823,0.01,0.0,0.0,0.0,0.01,0.0,0.0,0.0,0.01
1622095924762121490,207,1622095924761561828,foot_imu_link,0.96475738287,0.236465543509,0.0909037068486,-0.071160338819,5.53528580497e-05,0.0,0.0,0.0,4.19645690721e-05,0.0,0.0,0.0,4.89454515999e-05,-0.481701880693,2.42538356781,0.0313342288136,0.01,0.0,0.0,0.0,0.01,0.0,0.0,0.0,0.01,-1.99819087982,1.45825326443,9.37549495697,0.01,0.0,0.0,0.0,0.01,0.0,0.0,0.0,0.01
1622095924768786811,208,1622095924768210492,foot_imu_link,0.964242219925,0.236036479473,0.0972390919924,-0.0711911916733,5.5387411362e-05,0.0,0.0,0.0,4.19985615991e-05,0.0,0.0,0.0,4.89868562452e-05,-0.588384926319,2.47920155525,-0.0623157210648,0.01,0.0,0.0,0.0,0.01,0.0,0.0,0.0,0.01,-2.23818969727,1.46950793266,9.45893764496,0.01,0.0,0.0,0.0,0.01,0.0,0.0,0.0,0.01
1622095924769527438,209,1622095924769046217,foot_imu_link,0.963630855083,0.235795527697,0.103719584644,-0.0711214914918,5.54219646743e-05,0.0,0.0,0.0,4.20325622535e-05,0.0,0.0,0.0,4.90282202539e-05,-0.630743086338,2.52357316017,-0.152095168829,0.01,0.0,0.0,0.0,0.01,0.0,0.0,0.0,0.01,-2.4425508976,1.67788541317,9.61433601379,0.01,0.0,0.0,0.0,0.01,0.0,0.0,0.0,0.01
1622095924777630524,210,1622095924777100153,foot_imu_link,0.962933897972,0.235717684031,0.110324949026,-0.0708804130554,5.54564245224e-05,0.0,0.0,0.0,4.20665547805e-05,0.0,0.0,0.0,4.90695476897e-05,-0.69903409481,2.55341386795,-0.233608826995,0.01,0.0,0.0,0.0,0.01,0.0,0.0,0.0,0.01,-2.75551199913,1.76296162605,9.73499965668,0.01,0.0,0.0,0.0,0.01,0.0,0.0,0.0,0.01
1622095924786413455,211,1622095924785843319,foot_imu_link,0.962157428265,0.235767558217,0.117137610912,-0.0703256130219,5.54909331344e-05,0.0,0.0,0.0,4.21006041988e-05,0.0,0.0,0.0,4.91108791891e-05,-0.832220554352,2.60564136505,-0.310229152441,0.01,0.0,0.0,0.0,0.01,0.0,0.0,0.0,0.01,-3.11342692375,1.91577506065,9.70442581177,0.01,0.0,0.0,0.0,0.01,0.0,0.0,0.0,0.01
1622095924787217807,212,1622095924786755551,foot_imu_link,0.961303055286,0.235911414027,0.124179072678,-0.0694399029016,5.55253360912e-05,0.0,0.0,0.0,4.21346170442e-05,0.0,0.0,0.0,4.91521700518e-05,-0.974002838135,2.66192102432,-0.375471621752,0.01,0.0,0.0,0.0,0.01,0.0,0.0,0.0,0.01,-3.32334280014,2.06715726852,9.96833229065,0.01,0.0,0.0,0.0,0.01,0.0,0.0,0.0,0.01
1622095924793621542,213,1622095924793052289,foot_imu_link,0.960395753384,0.23604978621,0.131418392062,-0.0681894421577,5.5559739048e-05,0.0,0.0,0.0,4.21686745898e-05,0.0,0.0,0.0,4.91934243417e-05,-1.13193368912,2.7068874836,-0.402046650648,0.01,0.0,0.0,0.0,0.01,0.0,0.0,0.0,0.01,-3.3235616684,2.28470516205,10.2819700241,0.01,0.0,0.0,0.0,0.01,0.0,0.0,0.0,0.01
1622095924794349120,214,1622095924793925164,foot_imu_link,0.959438323975,0.236124992371,0.138876616955,-0.0666073262691,5.55940647953e-05,0.0,0.0,0.0,4.22027036898e-05,0.0,0.0,0.0,4.92346542495e-05,-1.28223788738,2.76458787918,-0.405981749296,0.01,0.0,0.0,0.0,0.01,0.0,0.0,0.0,0.01,-3.77959156036,2.17592549324,10.2822198868,0.01,0.0,0.0,0.0,0.01,0.0,0.0,0.0,0.01
1622095924802705168,215,1622095924802154578,foot_imu_link,0.958431661129,0.236142009497,0.146474406123,-0.0647373721004,5.56283661606e-05,0.0,0.0,0.0,4.22367531081e-05,0.0,0.0,0.0,4.92758272662e-05,-1.4075627327,2.79471492767,-0.407881468534,0.01,0.0,0.0,0.0,0.01,0.0,0.0,0.0,0.01,-4.3913435936,1.75585913658,10.5598974228,0.01,0.0,0.0,0.0,0.01,0.0,0.0,0.0,0.01
1622095924811236470,216,1622095924810590117,foot_imu_link,0.957406997681,0.235962495208,0.154209092259,-0.0625551044941,5.56625740617e-05,0.0,0.0,0.0,4.227080659e-05,0.0,0.0,0.0,4.93169840281e-05,-1.55102586746,2.82321286201,-0.356001347303,0.01,0.0,0.0,0.0,0.01,0.0,0.0,0.0,0.01,-4.52281475067,2.09985041618,10.7803897858,0.01,0.0,0.0,0.0,0.01,0.0,0.0,0.0,0.01
1622095924812004418,217,1622095924811598291,foot_imu_link,0.956371903419,0.235632807016,0.161882922053,-0.0601994879544,5.56968225994e-05,0.0,0.0,0.0,4.23048966449e-05,0.0,0.0,0.0,4.93581042171e-05,-1.62013757229,2.78748607635,-0.30871912837,0.01,0.0,0.0,0.0,0.01,0.0,0.0,0.0,0.01,-4.68529129028,1.44614052773,11.4035644531,0.01,0.0,0.0,0.0,0.01,0.0,0.0,0.0,0.01
1622095924818054534,218,1622095924817616366,foot_imu_link,0.955296456814,0.235133349895,0.169571250677,-0.0580218285322,5.57309370363e-05,0.0,0.0,0.0,4.23389623179e-05,0.0,0.0,0.0,4.93991634512e-05,-1.56490778923,2.81867671013,-0.236373528838,0.01,0.0,0.0,0.0,0.01,0.0,0.0,0.0,0.01,-5.45993757248,2.02558231354,10.8058509827,0.01,0.0,0.0,0.0,0.01,0.0,0.0,0.0,0.01
1622095924818761692,219,1622095924818418529,foot_imu_link,0.954213023186,0.2344186306,0.177214279771,-0.0558626428246,5.57650311548e-05,0.0,0.0,0.0,4.23730483091e-05,0.0,0.0,0.0,4.94401617304e-05,-1.56760382652,2.80810165405,-0.152834400535,0.01,0.0,0.0,0.0,0.01,0.0,0.0,0.0,0.01,-5.3320813179,1.73058974743,12.0900230408,0.01,0.0,0.0,0.0,0.01,0.0,0.0,0.0,0.01
1622095924827624183,220,1622095924827039802,foot_imu_link,0.953144669533,0.233429834247,0.184760153294,-0.0537538491189,5.57990318092e-05,0.0,0.0,0.0,4.24070977274e-05,0.0,0.0,0.0,4.9481094991e-05,-1.55845105648,2.77965164185,-0.0407268814743,0.01,0.0,0.0,0.0,0.01,0.0,0.0,0.0,0.01,-5.42143249512,2.08805084229,12.4869356155,0.01,0.0,0.0,0.0,0.01,0.0,0.0,0.0,0.01
1622095924835795976,221,1622095924835200204,foot_imu_link,0.952086389065,0.232126116753,0.192225530744,-0.0519453398883,5.58330324636e-05,0.0,0.0,0.0,4.24412121643e-05,0.0,0.0,0.0,4.95219957423e-05,-1.46016705036,2.78363752365,0.104213684797,0.01,0.0,0.0,0.0,0.01,0.0,0.0,0.0,0.01,-5.93145513535,2.08221030235,12.3345403671,0.01,0.0,0.0,0.0,0.01,0.0,0.0,0.0,0.01
1622095924836561709,222,1622095924836162937,foot_imu_link,0.951018333435,0.230597257614,0.199570804834,-0.0506035201252,5.586693559e-05,0.0,0.0,0.0,4.24752940919e-05,0.0,0.0,0.0,4.95628233477e-05,-1.28818941116,2.78608894348,0.227114766836,0.01,0.0,0.0,0.0,0.01,0.0,0.0,0.0,0.01,-6.52778434753,1.84519612789,12.616191864,0.01,0.0,0.0,0.0,0.01,0.0,0.0,0.0,0.01
1622095924842969549,223,1622095924842528604,foot_imu_link,0.950000822544,0.22874134779,0.206709071994,-0.0494687817991,5.59008224619e-05,0.0,0.0,0.0,4.25093963378e-05,0.0,0.0,0.0,4.96035778072e-05,-1.21819067001,2.7306728363,0.377078026533,0.01,0.0,0.0,0.0,0.01,0.0,0.0,0.0,0.01,-6.23273181915,1.81936264038,13.2586889267,0.01,0.0,0.0,0.0,0.01,0.0,0.0,0.0,0.01
1622095924843916854,224,1622095924843469529,foot_imu_link,0.949049949646,0.226611152291,0.213544711471,-0.0484793893993,5.59346118059e-05,0.0,0.0,0.0,4.25434863927e-05,0.0,0.0,0.0,4.96442835027e-05,-1.1582839489,2.62675189972,0.505219936371,0.01,0.0,0.0,0.0,0.01,0.0,0.0,0.0,0.01,-6.22461986542,1.22802066803,13.4399261475,0.01,0.0,0.0,0.0,0.01,0.0,0.0,0.0,0.01
1622095924852228078,225,1622095924851681931,foot_imu_link,0.948157608509,0.224397838116,0.219824001193,-0.0481690131128,5.59684377228e-05,0.0,0.0,0.0,4.25776536572e-05,0.0,0.0,0.0,4.9684956689e-05,-0.859118938446,2.4756538868,0.611706852913,0.01,0.0,0.0,0.0,0.01,0.0,0.0,0.0,0.01,-6.63288879395,1.11678147316,13.4573640823,0.01,0.0,0.0,0.0,0.01,0.0,0.0,0.0,0.01
1622095924860735204,226,1622095924860170822,foot_imu_link,0.947348415852,0.222267910838,0.225235491991,-0.0489590279758,5.60021336025e-05,0.0,0.0,0.0,4.26117559031e-05,0.0,0.0,0.0,4.97255242201e-05,-0.357717752457,2.23554730415,0.699975609779,0.01,0.0,0.0,0.0,0.01,0.0,0.0,0.0,0.01,-4.86568260193,1.29051864147,16.3563613892,0.01,0.0,0.0,0.0,0.01,0.0,0.0,0.0,0.01
1622095924861281810,227,1622095924860926515,foot_imu_link,0.946847975254,0.220111444592,0.229338929057,-0.0493318066001,5.60358498006e-05,0.0,0.0,0.0,4.26459231675e-05,0.0,0.0,0.0,4.97660307962e-05,-0.408397376537,1.675385952,0.725665748119,0.01,0.0,0.0,0.0,0.01,0.0,0.0,0.0,0.01,-2.55714464188,2.08634066582,19.7067642212,0.01,0.0,0.0,0.0,0.01,0.0,0.0,0.0,0.01
1622095924867862212,228,1622095924867321351,foot_imu_link,0.946813642979,0.216993749142,0.232386291027,-0.0495423190296,5.60695212984e-05,0.0,0.0,0.0,4.2680090432e-05,0.0,0.0,0.0,4.98065211177e-05,-0.473887950182,1.23711907864,1.1372398138,0.01,0.0,0.0,0.0,0.01,0.0,0.0,0.0,0.01,-3.56878662109,2.11378931999,18.2603569031,0.01,0.0,0.0,0.0,0.01,0.0,0.0,0.0,0.01
1622095924868450339,229,1622095924868068873,foot_imu_link,0.947137534618,0.212945237756,0.234572425485,-0.0506025254726,5.61031968599e-05,0.0,0.0,0.0,4.27142861421e-05,0.0,0.0,0.0,4.98469382933e-05,-0.170789718628,0.969944953918,1.61637961864,0.01,0.0,0.0,0.0,0.01,0.0,0.0,0.0,0.01,-6.04185295105,0.553799211979,16.7227573395,0.01,0.0,0.0,0.0,0.01,0.0,0.0,0.0,0.01
1622095924876911699,230,1622095924876446466,foot_imu_link,0.947639405727,0.208272323012,0.236516669393,-0.0515943877399,5.61368480393e-05,0.0,0.0,0.0,4.27484981069e-05,0.0,0.0,0.0,4.98873879782e-05,-0.238337397575,0.86917579174,1.86695826054,0.01,0.0,0.0,0.0,0.01,0.0,0.0,0.0,0.01,-7.74895095825,-0.628669857979,16.0093231201,0.01,0.0,0.0,0.0,0.01,0.0,0.0,0.0,0.01
1622095924883613533,231,1622095924883102872,foot_imu_link,0.948203682899,0.203253701329,0.2385327667,-0.0519617795944,5.61705479828e-05,0.0,0.0,0.0,4.27827222626e-05,0.0,0.0,0.0,4.99277929628e-05,-0.515009880066,0.844814538956,1.94215285778,0.01,0.0,0.0,0.0,0.01,0.0,0.0,0.0,0.01,-7.63708877563,-0.365354686975,15.5695838928,0.01,0.0,0.0,0.0,0.01,0.0,0.0,0.0,0.01
1622095924884502371,232,1622095924884107026,foot_imu_link,0.948729217052,0.198164314032,0.240729466081,-0.0518959239125,5.62041707166e-05,0.0,0.0,0.0,4.28169301637e-05,0.0,0.0,0.0,4.99681776291e-05,-0.70002746582,0.883376717567,1.92114973068,0.01,0.0,0.0,0.0,0.01,0.0,0.0,0.0,0.01,-8.27875995636,0.26967138052,14.3523225784,0.01,0.0,0.0,0.0,0.01,0.0,0.0,0.0,0.01
1622095924892590929,233,1622095924892161597,foot_imu_link,0.949116051197,0.193344056606,0.243157058954,-0.0516853109002,5.62379234876e-05,0.0,0.0,0.0,4.28512274653e-05,0.0,0.0,0.0,5.00085826138e-05,-0.743957638741,0.966659605503,1.78826749325,0.01,0.0,0.0,0.0,0.01,0.0,0.0,0.0,0.01,-9.21825313568,0.293477147818,12.0492010117,0.01,0.0,0.0,0.0,0.01,0.0,0.0,0.0,0.01
1622095924901374862,234,1622095924900747095,foot_imu_link,0.94929933548,0.188848033547,0.246019378304,-0.0513978265226,5.62715706035e-05,0.0,0.0,0.0,4.28854800667e-05,0.0,0.0,0.0,5.00489672801e-05,-0.772292554379,1.14044988155,1.63524210453,0.01,0.0,0.0,0.0,0.01,0.0,0.0,0.0,0.01,-9.59832191467,-0.748494327068,11.4474105835,0.01,0.0,0.0,0.0,0.01,0.0,0.0,0.0,0.01
1622095924902076473,235,1622095924901604609,foot_imu_link,0.949268639088,0.184893772006,0.249197468162,-0.05102968961,5.63052908652e-05,0.0,0.0,0.0,4.29197611137e-05,0.0,0.0,0.0,5.00892828641e-05,-0.768059194088,1.26308298111,1.39736521244,0.01,0.0,0.0,0.0,0.01,0.0,0.0,0.0,0.01,-9.98348903656,-1.64175343513,11.5803661346,0.01,0.0,0.0,0.0,0.01,0.0,0.0,0.0,0.01
1622095924908227176,236,1622095924907797377,foot_imu_link,0.949007093906,0.181535840034,0.252728998661,-0.0505799092352,5.6338937981e-05,0.0,0.0,0.0,4.2954025906e-05,0.0,0.0,0.0,5.01296106392e-05,-0.761649608612,1.40246391296,1.13899445534,0.01,0.0,0.0,0.0,0.01,0.0,0.0,0.0,0.01,-9.91837596893,-1.14316594601,12.1470060349,0.01,0.0,0.0,0.0,0.01,0.0,0.0,0.0,0.01
1622095924909016872,237,1622095924908631140,foot_imu_link,0.94860035181,0.178581446409,0.256444722414,-0.0500222295523,5.63726338608e-05,0.0,0.0,0.0,4.29883475896e-05,0.0,0.0,0.0,5.01698855866e-05,-0.771458685398,1.47006738186,0.959770262241,0.01,0.0,0.0,0.0,0.01,0.0,0.0,0.0,0.01,-9.58271217346,-0.780104458332,13.2188940048,0.01,0.0,0.0,0.0,0.01,0.0,0.0,0.0,0.01
1622095924917587181,238,1622095924917037796,foot_imu_link,0.948091208935,0.175994977355,0.260237216949,-0.0492487289011,5.64062647219e-05,0.0,0.0,0.0,4.30226286366e-05,0.0,0.0,0.0,5.02101442794e-05,-0.820090591908,1.48859298229,0.790244996548,0.01,0.0,0.0,0.0,0.01,0.0,0.0,0.0,0.01,-9.51481246948,-0.19677734375,13.8186779022,0.01,0.0,0.0,0.0,0.01,0.0,0.0,0.0,0.01
1622095924926086486,239,1622095924925521145,foot_imu_link,0.947505712509,0.173747375607,0.264035433531,-0.0482708327472,5.64399118378e-05,0.0,0.0,0.0,4.30569625112e-05,0.0,0.0,0.0,5.02503542083e-05,-0.859990775585,1.47562599182,0.634047210217,0.01,0.0,0.0,0.0,0.01,0.0,0.0,0.0,0.01,-9.68204212189,0.0609869323671,14.088561058,0.01,0.0,0.0,0.0,0.01,0.0,0.0,0.0,0.01
1622095924926945270,240,1622095924926487405,foot_imu_link,0.946849286556,0.171976134181,0.267754793167,-0.0469903945923,5.64735345716e-05,0.0,0.0,0.0,4.30913045131e-05,0.0,0.0,0.0,5.02905641372e-05,-0.918593466282,1.4251190424,0.418860971928,0.01,0.0,0.0,0.0,0.01,0.0,0.0,0.0,0.01,-8.57069587708,0.235399603844,14.6791934967,0.01,0.0,0.0,0.0,0.01,0.0,0.0,0.0,0.01
1622095924933313066,241,1622095924932738231,foot_imu_link,0.946269869804,0.170321777463,0.271138131618,-0.0452552884817,5.65071126052e-05,0.0,0.0,0.0,4.3125622133e-05,0.0,0.0,0.0,5.03306602835e-05,-1.05640387535,1.2550393343,0.3373452425,0.01,0.0,0.0,0.0,0.01,0.0,0.0,0.0,0.01,-9.48065757751,1.10410642624,14.4149951935,0.01,0.0,0.0,0.0,0.01,0.0,0.0,0.0,0.01
1622095924934081156,242,1622095924933703986,foot_imu_link,0.945774674416,0.168659850955,0.274157643318,-0.0436089299619,5.65406500022e-05,0.0,0.0,0.0,4.3159939753e-05,0.0,0.0,0.0,5.03707564299e-05,-1.00017285347,1.11451399326,0.362139761448,0.01,0.0,0.0,0.0,0.01,0.0,0.0,0.0,0.01,-10.1542711258,0.809843301773,13.9828605652,0.01,0.0,0.0,0.0,0.01,0.0,0.0,0.0,0.01
1622095924942080582,243,1622095924941646213,foot_imu_link,0.945442855358,0.166878789663,0.276637881994,-0.041961427778,5.65742361631e-05,0.0,0.0,0.0,4.31942980095e-05,0.0,0.0,0.0,5.04108160033e-05,-0.980189859867,0.894590973854,0.427364945412,0.01,0.0,0.0,0.0,0.01,0.0,0.0,0.0,0.01,-10.2466173172,1.5401096344,14.6961336136,0.01,0.0,0.0,0.0,0.01,0.0,0.0,0.0,0.01
1622095924950854638,244,1622095924950241289,foot_imu_link,0.945289313793,0.164967924356,0.278549343348,-0.0402994155884,5.66077288598e-05,0.0,0.0,0.0,4.32286075022e-05,0.0,0.0,0.0,5.04508349401e-05,-0.964974224567,0.66097599268,0.496423006058,0.01,0.0,0.0,0.0,0.01,0.0,0.0,0.0,0.01,-10.2038040161,1.58696913719,14.2500734329,0.01,0.0,0.0,0.0,0.01,0.0,0.0,0.0,0.01
1622095924951697089,245,1622095924951279316,foot_imu_link,0.945229828358,0.163157597184,0.279999732971,-0.0389920771122,5.66412662567e-05,0.0,0.0,0.0,4.32629535677e-05,0.0,0.0,0.0,5.04908376222e-05,-0.790767431259,0.497912168503,0.51158875227,0.01,0.0,0.0,0.0,0.01,0.0,0.0,0.0,0.01,-10.2574138641,1.65706038475,13.0868635178,0.01,0.0,0.0,0.0,0.01,0.0,0.0,0.0,0.01
1622095924957877578,246,1622095924957462786,foot_imu_link,0.945192992687,0.161463871598,0.281189143658,-0.0383700542152,5.66747630171e-05,0.0,0.0,0.0,4.3297279315e-05,0.0,0.0,0.0,5.05308240497e-05,-0.501892328262,0.439596354961,0.549804329872,0.01,0.0,0.0,0.0,0.01,0.0,0.0,0.0,0.01,-9.95072650909,1.78592443466,11.9731483459,0.01,0.0,0.0,0.0,0.01,0.0,0.0,0.0,0.01
1622095924959174877,247,1622095924958598287,foot_imu_link,0.94515401125,0.159775242209,0.282269269228,-0.0384698100388,5.6708312605e-05,0.0,0.0,0.0,4.33316416352e-05,0.0,0.0,0.0,5.05708226682e-05,-0.221392810345,0.445116251707,0.630515038967,0.01,0.0,0.0,0.0,0.01,0.0,0.0,0.0,0.01,-9.35443782806,1.88887107372,11.7225151062,0.01,0.0,0.0,0.0,0.01,0.0,0.0,0.0,0.01
1622095924967282458,248,1622095924966677443,foot_imu_link,0.945144236088,0.157978445292,0.283217817545,-0.0391526520252,5.67417971744e-05,0.0,0.0,0.0,4.33659877008e-05,0.0,0.0,0.0,5.06108090957e-05,-0.00522386655211,0.430891245604,0.741001188755,0.01,0.0,0.0,0.0,0.01,0.0,0.0,0.0,0.01,-9.06432151794,1.94818103313,11.9879131317,0.01,0.0,0.0,0.0,0.01,0.0,0.0,0.0,0.01
1622095924975346674,249,1622095924974895482,foot_imu_link,0.945185422897,0.156043231487,0.283950835466,-0.0405821315944,5.67753223804e-05,0.0,0.0,0.0,4.3400350021e-05,0.0,0.0,0.0,5.06507955232e-05,0.273993968964,0.39297413826,0.884253263474,0.01,0.0,0.0,0.0,0.01,0.0,0.0,0.0,0.01,-8.86742687225,2.29148197174,12.4428215027,0.01,0.0,0.0,0.0,0.01,0.0,0.0,0.0,0.01
1622095924976000856,250,1622095924975629947,foot_imu_link,0.945354580879,0.15382450819,0.284316003323,-0.0425111763179,5.68088435227e-05,0.0,0.0,0.0,4.34347164049e-05,0.0,0.0,0.0,5.06907819507e-05,0.451959490776,0.275476336479,1.06314766407,0.01,0.0,0.0,0.0,0.01,0.0,0.0,0.0,0.01,-8.47853660583,2.44777393341,13.1226110458,0.01,0.0,0.0,0.0,0.01,0.0,0.0,0.0,0.01
1622095924982671925,251,1622095924982227837,foot_imu_link,0.945694446564,0.151246920228,0.284197539091,-0.0449237599969,5.6842376856e-05,0.0,0.0,0.0,4.34690868524e-05,0.0,0.0,0.0,5.07307358689e-05,0.62065833807,0.108823306859,1.27200758457,0.01,0.0,0.0,0.0,0.01,0.0,0.0,0.0,0.01,-8.18440914154,2.62591481209,13.1401405334,0.01,0.0,0.0,0.0,0.01,0.0,0.0,0.0,0.01
1622095924983478463,252,1622095924983032875,foot_imu_link,0.946179568768,0.148260563612,0.283685803413,-0.0478068552911,5.687587768e-05,0.0,0.0,0.0,4.35034491726e-05,0.0,0.0,0.0,5.07707141691e-05,0.773523032665,-0.0206407587975,1.49627232552,0.01,0.0,0.0,0.0,0.01,0.0,0.0,0.0,0.01,-7.82497739792,2.193775177,12.9526596069,0.01,0.0,0.0,0.0,0.01,0.0,0.0,0.0,0.01
1622095924991823037,253,1622095924991316370,foot_imu_link,0.946853220463,0.144896313548,0.282631695271,-0.0509248003364,5.69094435226e-05,0.0,0.0,0.0,4.35378561931e-05,0.0,0.0,0.0,5.08107046603e-05,0.847690403461,-0.22605663538,1.68687689304,0.01,0.0,0.0,0.0,0.01,0.0,0.0,0.0,0.01,-7.01418781281,1.73970627785,13.377248764,0.01,0.0,0.0,0.0,0.01,0.0,0.0,0.0,0.01
1622095924998859543,254,1622095924998199437,foot_imu_link,0.947720050812,0.141206532717,0.280988484621,-0.0541561432183,5.69430215562e-05,0.0,0.0,0.0,4.35722713409e-05,0.0,0.0,0.0,5.08507195334e-05,0.88425385952,-0.457945883274,1.84647548199,0.01,0.0,0.0,0.0,0.01,0.0,0.0,0.0,0.01,-6.7578830719,1.63084101677,13.3765907288,0.01,0.0,0.0,0.0,0.01,0.0,0.0,0.0,0.01
1622095924999711464,255,1622095924999204561,foot_imu_link,0.948783278465,0.137181520462,0.278717637062,-0.0575158558786,5.69766483537e-05,0.0,0.0,0.0,4.36067230617e-05,0.0,0.0,0.0,5.08907709795e-05,0.9264742136,-0.703373670578,2.01267838478,0.01,0.0,0.0,0.0,0.01,0.0,0.0,0.0,0.01,-6.50228357315,1.62809705734,13.2319488525,0.01,0.0,0.0,0.0,0.01,0.0,0.0,0.0,0.01
1622095925007792497,256,1622095925007235024,foot_imu_link,0.94997292757,0.133026525378,0.275979578495,-0.0607511773705,5.70103035969e-05,0.0,0.0,0.0,4.36411829098e-05,0.0,0.0,0.0,5.09308671258e-05,0.887330889702,-0.898405313492,2.06544733047,0.01,0.0,0.0,0.0,0.01,0.0,0.0,0.0,0.01,-5.29934692383,1.38027858734,13.0943803787,0.01,0.0,0.0,0.0,0.01,0.0,0.0,0.0,0.01
1622095925016231782,257,1622095925015643079,foot_imu_link,0.951321899891,0.128430575132,0.272832274437,-0.0636768564582,5.70440360496e-05,0.0,0.0,0.0,4.36756590125e-05,0.0,0.0,0.0,5.09710120361e-05,0.73921251297,-1.07765650749,2.2180762291,0.01,0.0,0.0,0.0,0.01,0.0,0.0,0.0,0.01,-5.9908208847,1.59428107738,12.3620910645,0.01,0.0,0.0,0.0,0.01,0.0,0.0,0.0,0.01
1622095925017182093,258,1622095925016497282,foot_imu_link,0.952804625034,0.123619735241,0.269183814526,-0.0664956867695,5.7077723802e-05,0.0,0.0,0.0,4.37101066696e-05,0.0,0.0,0.0,5.10111650737e-05,0.6970667243,-1.28258383274,2.30695462227,0.01,0.0,0.0,0.0,0.01,0.0,0.0,0.0,0.01,-6.66051673889,0.668299615383,11.9952230453,0.01,0.0,0.0,0.0,0.01,0.0,0.0,0.0,0.01
1622095925023535781,259,1622095925022907768,foot_imu_link,0.95446228981,0.118606850505,0.26500415802,-0.0686068534851,5.71115497189e-05,0.0,0.0,0.0,4.37446071543e-05,0.0,0.0,0.0,5.10514075119e-05,0.427537024021,-1.53386580944,2.33154392242,0.01,0.0,0.0,0.0,0.01,0.0,0.0,0.0,0.01,-6.62446737289,0.938523590565,12.4653892517,0.01,0.0,0.0,0.0,0.01,0.0,0.0,0.0,0.01
1622095925024170283,260,1622095925023748148,foot_imu_link,0.956255435944,0.113577529788,0.260335564613,-0.0700084120035,5.71454000178e-05,0.0,0.0,0.0,4.37791076391e-05,0.0,0.0,0.0,5.10917149687e-05,0.174242511392,-1.7684596777,2.28226137161,0.01,0.0,0.0,0.0,0.01,0.0,0.0,0.0,0.01,-6.21782302856,0.760608673096,12.197224617,0.01,0.0,0.0,0.0,0.01,0.0,0.0,0.0,0.01
1622095925032560253,261,1622095925031999947,foot_imu_link,0.958121180534,0.108661107719,0.255286246538,-0.0708917751908,5.71793153353e-05,0.0,0.0,0.0,4.38136162511e-05,0.0,0.0,0.0,5.1132063062e-05,0.00310504622757,-1.94754433632,2.19819641113,0.01,0.0,0.0,0.0,0.01,0.0,0.0,0.0,0.01,-6.10526752472,0.357510000467,11.1266231537,0.01,0.0,0.0,0.0,0.01,0.0,0.0,0.0,0.01
1622095925040843001,262,1622095925040355015,foot_imu_link,0.959954202175,0.104005455971,0.250143051147,-0.0714098140597,5.7213275353e-05,0.0,0.0,0.0,4.38481248631e-05,0.0,0.0,0.0,5.11725086832e-05,-0.10521042347,-2.00344467163,2.06221199036,0.01,0.0,0.0,0.0,0.01,0.0,0.0,0.0,0.01,-6.18154430389,-0.0916717648506,10.0245933533,0.01,0.0,0.0,0.0,0.01,0.0,0.0,0.0,0.01
1622095925041592289,263,1622095925041085882,foot_imu_link,0.961727976799,0.099565833807,0.245016559958,-0.0716449320316,5.72473247713e-05,0.0,0.0,0.0,4.38826334751e-05,0.0,0.0,0.0,5.12130396414e-05,-0.191350877285,-2.00975084305,1.94892704487,0.01,0.0,0.0,0.0,0.01,0.0,0.0,0.0,0.01,-5.87854814529,0.312217086554,10.1578130722,0.01,0.0,0.0,0.0,0.01,0.0,0.0,0.0,0.01
1622095925048129632,264,1622095925047651177,foot_imu_link,0.963484108448,0.095297627151,0.239754706621,-0.0716557726264,5.72813945079e-05,0.0,0.0,0.0,4.39171542781e-05,0.0,0.0,0.0,5.12536193634e-05,-0.254904925823,-2.07362604141,1.86369407177,0.01,0.0,0.0,0.0,0.01,0.0,0.0,0.0,0.01,-5.56865119934,0.124714106321,10.4264087677,0.01,0.0,0.0,0.0,0.01,0.0,0.0,0.0,0.01
1622095925049053231,265,1622095925048635395,foot_imu_link,0.96516507864,0.0911802127957,0.234541982412,-0.0716418102384,5.73155780271e-05,0.0,0.0,0.0,4.39516628902e-05,0.0,0.0,0.0,5.1294325059e-05,-0.249664008617,-2.05312490463,1.79933643341,0.01,0.0,0.0,0.0,0.01,0.0,0.0,0.0,0.01,-5.635825634,0.223310351372,9.69743919373,0.01,0.0,0.0,0.0,0.01,0.0,0.0,0.0,0.01
1622095925057135783,266,1622095925056697540,foot_imu_link,0.966765105724,0.0871521830559,0.22946497798,-0.0715239197016,5.73497818645e-05,0.0,0.0,0.0,4.39861430566e-05,0.0,0.0,0.0,5.13350795185e-05,-0.284113883972,-1.99904763699,1.74782681465,0.01,0.0,0.0,0.0,0.01,0.0,0.0,0.0,0.01,-5.43692541122,0.232508897781,9.85324573517,0.01,0.0,0.0,0.0,0.01,0.0,0.0,0.0,0.01
1622095925065813116,267,1622095925065226018,foot_imu_link,0.968259632587,0.0832459777594,0.224618509412,-0.0713444203138,5.73840588478e-05,0.0,0.0,0.0,4.40206516686e-05,0.0,0.0,0.0,5.13758908692e-05,-0.301647424698,-1.90548038483,1.68450963497,0.01,0.0,0.0,0.0,0.01,0.0,0.0,0.0,0.01,-5.15643215179,0.392790824175,9.46966075897,0.01,0.0,0.0,0.0,0.01,0.0,0.0,0.0,0.01
1622095925066600763,268,1622095925066058760,foot_imu_link,0.969630122185,0.0793810710311,0.220099151134,-0.0712211355567,5.74183886587e-05,0.0,0.0,0.0,4.40551643443e-05,0.0,0.0,0.0,5.14168119388e-05,-0.283584028482,-1.76742017269,1.66032838821,0.01,0.0,0.0,0.0,0.01,0.0,0.0,0.0,0.01,-5.57626438141,0.704727828503,9.29061985016,0.01,0.0,0.0,0.0,0.01,0.0,0.0,0.0,0.01
1622095925072927708,269,1622095925072436694,foot_imu_link,0.970881402493,0.0756162777543,0.215883001685,-0.071176558733,5.74527672336e-05,0.0,0.0,0.0,4.40896810836e-05,0.0,0.0,0.0,5.1457785836e-05,-0.25047904253,-1.63918578625,1.6158567667,0.01,0.0,0.0,0.0,0.01,0.0,0.0,0.0,0.01,-6.04483032227,0.108549505472,9.09037208557,0.01,0.0,0.0,0.0,0.01,0.0,0.0,0.0,0.01
1622095925073685535,270,1622095925073321776,foot_imu_link,0.972004294395,0.0720002129674,0.212043195963,-0.0711422264576,5.74871823814e-05,0.0,0.0,0.0,4.41241896956e-05,0.0,0.0,0.0,5.14988369428e-05,-0.241524800658,-1.48686826229,1.54522395134,0.01,0.0,0.0,0.0,0.01,0.0,0.0,0.0,0.01,-6.41583824158,0.227560013533,9.13545799255,0.01,0.0,0.0,0.0,0.01,0.0,0.0,0.0,0.01
1622095925082188933,271,1622095925081636074,foot_imu_link,0.973003923893,0.0685728564858,0.208536043763,-0.0712317600846,5.75216056566e-05,0.0,0.0,0.0,4.41586576711e-05,0.0,0.0,0.0,5.15399002405e-05,-0.183311402798,-1.34802663326,1.46845448017,0.01,0.0,0.0,0.0,0.01,0.0,0.0,0.0,0.01,-6.58864545822,0.0248757302761,9.513463974,0.01,0.0,0.0,0.0,0.01,0.0,0.0,0.0,0.01
1622095925090582873,272,1622095925090023166,foot_imu_link,0.97390037775,0.0653617456555,0.205327898264,-0.0713188573718,5.75561020776e-05,0.0,0.0,0.0,4.41931744104e-05,0.0,0.0,0.0,5.15810691935e-05,-0.171503424644,-1.22951924801,1.37306249142,0.01,0.0,0.0,0.0,0.01,0.0,0.0,0.0,0.01,-6.84002113342,-0.279167115688,9.91848754883,0.01,0.0,0.0,0.0,0.01,0.0,0.0,0.0,0.01
1622095925091826775,273,1622095925091038417,foot_imu_link,0.974693119526,0.062397941947,0.202419698238,-0.071457542479,5.75906594536e-05,0.0,0.0,0.0,4.42276748951e-05,0.0,0.0,0.0,5.16222625284e-05,-0.135981783271,-1.11012852192,1.26988041401,0.01,0.0,0.0,0.0,0.01,0.0,0.0,0.0,0.01,-6.95168590546,-0.399363845587,10.0629415512,0.01,0.0,0.0,0.0,0.01,0.0,0.0,0.0,0.01
1622095925097789424,274,1622095925097350621,foot_imu_link,0.975393235683,0.0597445331514,0.199730068445,-0.071739576757,5.76252046385e-05,0.0,0.0,0.0,4.42621388069e-05,0.0,0.0,0.0,5.16634883726e-05,-0.0577661842108,-1.02239179611,1.15170824528,0.01,0.0,0.0,0.0,0.01,0.0,0.0,0.0,0.01,-6.72485399246,-0.328790992498,10.5412731171,0.01,0.0,0.0,0.0,0.01,0.0,0.0,0.0,0.01
1622095925098580983,275,1622095925098115093,foot_imu_link,0.976040005684,0.0571822673082,0.197118148208,-0.07225356251,5.76598189058e-05,0.0,0.0,0.0,4.42966474189e-05,0.0,0.0,0.0,5.17047711081e-05,0.0397011972964,-0.984845280647,1.13084232807,0.01,0.0,0.0,0.0,0.01,0.0,0.0,0.0,0.01,-6.80277633667,-0.256805747747,11.0925312042,0.01,0.0,0.0,0.0,0.01,0.0,0.0,0.0,0.01
1622095925106886580,276,1622095925106346556,foot_imu_link,0.97666156292,0.0548064112663,0.194420948625,-0.0730008631945,5.7694445364e-05,0.0,0.0,0.0,4.43311560309e-05,0.0,0.0,0.0,5.17461066711e-05,0.14807087183,-1.01564562321,1.07805633545,0.01,0.0,0.0,0.0,0.01,0.0,0.0,0.0,0.01,-7.04050779343,-0.0716007053852,11.5084953308,0.01,0.0,0.0,0.0,0.01,0.0,0.0,0.0,0.01
1622095925113495556,277,1622095925113041897,foot_imu_link,0.977301061153,0.0525212474167,0.191530197859,-0.0737598240376,5.77291409044e-05,0.0,0.0,0.0,4.43656930886e-05,0.0,0.0,0.0,5.17874869345e-05,0.163628205657,-1.09655070305,1.05104982853,0.01,0.0,0.0,0.0,0.01,0.0,0.0,0.0,0.01,-6.88282203674,0.139933392406,12.1246938705,0.01,0.0,0.0,0.0,0.01,0.0,0.0,0.0,0.01
1622095925114179482,278,1622095925113769929,foot_imu_link,0.977987825871,0.0503590218723,0.188231304288,-0.074651107192,5.77637876809e-05,0.0,0.0,0.0,4.44001570003e-05,0.0,0.0,0.0,5.18288468795e-05,0.231765449047,-1.25972878933,1.02529907227,0.01,0.0,0.0,0.0,0.01,0.0,0.0,0.0,0.01,-6.81007480621,0.0074962079525,12.5660905838,0.01,0.0,0.0,0.0,0.01,0.0,0.0,0.0,0.01
1622095925122763224,279,1622095925122188806,foot_imu_link,0.978714585304,0.0481681376696,0.184591263533,-0.0756554156542,5.77984669667e-05,0.0,0.0,0.0,4.44346656123e-05,0.0,0.0,0.0,5.18702677795e-05,0.279653549194,-1.39307999611,1.05601251125,0.01,0.0,0.0,0.0,0.01,0.0,0.0,0.0,0.01,-6.91973876953,0.250490486622,12.3936252594,0.01,0.0,0.0,0.0,0.01,0.0,0.0,0.0,0.01
1622095925131582874,280,1622095925131019813,foot_imu_link,0.979490697384,0.0459391996264,0.180523827672,-0.0768036320806,5.78332031438e-05,0.0,0.0,0.0,4.44691701607e-05,0.0,0.0,0.0,5.19117455707e-05,0.339608848095,-1.55917561054,1.09473764896,0.01,0.0,0.0,0.0,0.01,0.0,0.0,0.0,0.01,-6.59080076218,0.303949654102,12.7734546661,0.01,0.0,0.0,0.0,0.01,0.0,0.0,0.0,0.01
1622095925132159248,281,1622095925131770725,foot_imu_link,0.980317354202,0.0435221493244,0.176019817591,-0.0781079530716,5.78680165304e-05,0.0,0.0,0.0,4.45037153457e-05,0.0,0.0,0.0,5.19533005714e-05,0.394186586142,-1.72714674473,1.19547057152,0.01,0.0,0.0,0.0,0.01,0.0,0.0,0.0,0.01,-6.57052087784,0.204261064529,12.6363620758,0.01,0.0,0.0,0.0,0.01,0.0,0.0,0.0,0.01
1622095925138316337,282,1622095925137872266,foot_imu_link,0.98118019104,0.0409571863711,0.171064570546,-0.0796550512314,5.79028014714e-05,0.0,0.0,0.0,4.45382158304e-05,0.0,0.0,0.0,5.19948474449e-05,0.484897315502,-1.89529776573,1.28349304199,0.01,0.0,0.0,0.0,0.01,0.0,0.0,0.0,0.01,-6.33420658112,0.16990968585,12.7956209183,0.01,0.0,0.0,0.0,0.01,0.0,0.0,0.0,0.01
1622095925139045525,283,1622095925138628350,foot_imu_link,0.982042372227,0.0382861718535,0.165796369314,-0.0814771130681,5.79376554946e-05,0.0,0.0,0.0,4.45727569517e-05,0.0,0.0,0.0,5.20364837189e-05,0.591653525829,-2.01293873787,1.35568094254,0.01,0.0,0.0,0.0,0.01,0.0,0.0,0.0,0.01,-6.30410146713,-0.00896173343062,12.2143688202,0.01,0.0,0.0,0.0,0.01,0.0,0.0,0.0,0.01
1622095925147589087,284,1622095925147039280,foot_imu_link,0.982891380787,0.0356170386076,0.160197332501,-0.0836230441928,5.79725013906e-05,0.0,0.0,0.0,4.46072615001e-05,0.0,0.0,0.0,5.20781281202e-05,0.723955094814,-2.13587164879,1.38634717464,0.01,0.0,0.0,0.0,0.01,0.0,0.0,0.0,0.01,-6.03284740448,0.138155058026,12.2167301178,0.01,0.0,0.0,0.0,0.01,0.0,0.0,0.0,0.01
1622095925155966957,285,1622095925155400969,foot_imu_link,0.98368293047,0.0328901074827,0.154584527016,-0.0859641581774,5.8007461069e-05,0.0,0.0,0.0,4.46418229397e-05,0.0,0.0,0.0,5.21198741131e-05,0.799466431141,-2.13334703445,1.42137718201,0.01,0.0,0.0,0.0,0.01,0.0,0.0,0.0,0.01,-6.27543592453,-0.0612801387906,11.7545204163,0.01,0.0,0.0,0.0,0.01,0.0,0.0,0.0,0.01
1622095925156893081,286,1622095925156322900,foot_imu_link,0.984424352646,0.0302318558097,0.148806422949,-0.0886081904173,5.80424085564e-05,0.0,0.0,0.0,4.46763437427e-05,0.0,0.0,0.0,5.21616241696e-05,0.925651788712,-2.19142222404,1.41690790653,0.01,0.0,0.0,0.0,0.01,0.0,0.0,0.0,0.01,-6.44178152084,-0.0955003872514,12.4586105347,0.01,0.0,0.0,0.0,0.01,0.0,0.0,0.0,0.01
1622095925163079086,287,1622095925162607250,foot_imu_link,0.985141158104,0.0277622658759,0.142779946327,-0.0913244485855,5.80774535718e-05,0.0,0.0,0.0,4.47109336279e-05,0.0,0.0,0.0,5.22034920723e-05,0.970355451107,-2.29585027695,1.35662090778,0.01,0.0,0.0,0.0,0.01,0.0,0.0,0.0,0.01,-6.11471223831,0.214965909719,11.9936542511,0.01,0.0,0.0,0.0,0.01,0.0,0.0,0.0,0.01
1622095925163918606,288,1622095925163551117,foot_imu_link,0.985818207264,0.0254812631756,0.136534884572,-0.0941890999675,5.81124985871e-05,0.0,0.0,0.0,4.47454828766e-05,0.0,0.0,0.0,5.2245359975e-05,1.04353070259,-2.38541126251,1.29871702194,0.01,0.0,0.0,0.0,0.01,0.0,0.0,0.0,0.01,-5.86152505875,0.185516119003,11.9733734131,0.01,0.0,0.0,0.0,0.01,0.0,0.0,0.0,0.01
1622095925172263594,289,1622095925171775882,foot_imu_link,0.986442863941,0.023341935128,0.130153656006,-0.0971885323524,5.8147584239e-05,0.0,0.0,0.0,4.47800443162e-05,0.0,0.0,0.0,5.22872441323e-05,1.10702431202,-2.43831300735,1.25364422798,0.01,0.0,0.0,0.0,0.01,0.0,0.0,0.0,0.01,-5.72252893448,0.240943729877,11.663693428,0.01,0.0,0.0,0.0,0.01,0.0,0.0,0.0,0.01
1622095925180892657,290,1622095925180311093,foot_imu_link,0.987019896507,0.021331852302,0.123577982187,-0.100325249135,5.81827389732e-05,0.0,0.0,0.0,4.48146382651e-05,0.0,0.0,0.0,5.23292258175e-05,1.17214274406,-2.51721787453,1.21750950813,0.01,0.0,0.0,0.0,0.01,0.0,0.0,0.0,0.01,-5.59792518616,0.395306736231,11.4593420029,0.01,0.0,0.0,0.0,0.01,0.0,0.0,0.0,0.01
1622095925181774211,291,1622095925181218093,foot_imu_link,0.987566888332,0.0195322204381,0.116759940982,-0.103427410126,5.8217934344e-05,0.0,0.0,0.0,4.4849244405e-05,0.0,0.0,0.0,5.23712278211e-05,1.1726603508,-2.62179160118,1.14294207096,0.01,0.0,0.0,0.0,0.01,0.0,0.0,0.0,0.01,-5.54031419754,0.524886786938,11.6836929321,0.01,0.0,0.0,0.0,0.01,0.0,0.0,0.0,0.01
1622095925187778198,292,1622095925187322075,foot_imu_link,0.988091289997,0.017896367237,0.109718747437,-0.106382571161,5.82531459694e-05,0.0,0.0,0.0,4.48838261629e-05,0.0,0.0,0.0,5.24132501429e-05,1.12430894375,-2.7152736187,1.07961571217,0.01,0.0,0.0,0.0,0.01,0.0,0.0,0.0,0.01,-5.34120559692,0.836407959461,11.4222297668,0.01,0.0,0.0,0.0,0.01,0.0,0.0,0.0,0.01
1622095925188513965,293,1622095925188134819,foot_imu_link,0.988613843918,0.0164321418852,0.102324798703,-0.109097622335,5.82884022951e-05,0.0,0.0,0.0,4.49184526212e-05,0.0,0.0,0.0,5.24553374833e-05,1.03934252262,-2.86303472519,1.01610922813,0.01,0.0,0.0,0.0,0.01,0.0,0.0,0.0,0.01,-5.22163486481,0.928700506687,11.1318264008,0.01,0.0,0.0,0.0,0.01,0.0,0.0,0.0,0.01
1622095925197195500,294,1622095925196649123,foot_imu_link,0.98913115263,0.0150454845279,0.0946373194456,-0.11152138561,5.83237195758e-05,0.0,0.0,0.0,4.49530872067e-05,0.0,0.0,0.0,5.2497469524e-05,0.929718136787,-2.98475337029,0.986477136612,0.01,0.0,0.0,0.0,0.01,0.0,0.0,0.0,0.01,-5.12330722809,0.988516867161,10.8617086411,0.01,0.0,0.0,0.0,0.01,0.0,0.0,0.0,0.01
1622095925203851654,295,1622095925203296536,foot_imu_link,0.98964124918,0.0137466182932,0.0865383297205,-0.113720491529,5.83590937476e-05,0.0,0.0,0.0,4.49877380469e-05,0.0,0.0,0.0,5.25396340739e-05,0.846802890301,-3.15195155144,0.9613057971,0.01,0.0,0.0,0.0,0.01,0.0,0.0,0.0,0.01,-4.83041620255,1.146468997,10.5127639771,0.01,0.0,0.0,0.0,0.01,0.0,0.0,0.0,0.01
1622095925204687485,296,1622095925204263331,foot_imu_link,0.990134477615,0.0124879796058,0.0780666023493,-0.115686431527,5.83944923015e-05,0.0,0.0,0.0,4.5022413269e-05,0.0,0.0,0.0,5.25818433242e-05,0.759165287018,-3.3039958477,0.954782664776,0.01,0.0,0.0,0.0,0.01,0.0,0.0,0.0,0.01,-4.81584978104,1.17571115494,9.97704792023,0.01,0.0,0.0,0.0,0.01,0.0,0.0,0.0,0.01
1622095925213027370,297,1622095925212479882,foot_imu_link,0.99060344696,0.0112478127703,0.0692279487848,-0.117413379252,5.8429931492e-05,0.0,0.0,0.0,4.50570681728e-05,0.0,0.0,0.0,5.26240566381e-05,0.667618513107,-3.44862413406,0.956246733665,0.01,0.0,0.0,0.0,0.01,0.0,0.0,0.0,0.01,-4.67845201492,1.30910360813,9.65450286865,0.01,0.0,0.0,0.0,0.01,0.0,0.0,0.0,0.01
1622095925213773699,298,1622095925213386847,foot_imu_link,0.991031348705,0.00990857928991,0.0600657686591,-0.118957333267,5.84654194464e-05,0.0,0.0,0.0,4.50917474586e-05,0.0,0.0,0.0,5.26663349706e-05,0.595922768116,-3.57256174088,1.00559163094,0.01,0.0,0.0,0.0,0.01,0.0,0.0,0.0,0.01,-4.59912443161,1.3753516674,9.44906806946,0.01,0.0,0.0,0.0,0.01,0.0,0.0,0.0,0.01
1622095925221849673,299,1622095925221377913,foot_imu_link,0.991392374039,0.0084526790306,0.0506287887692,-0.120442420244,5.85009480374e-05,0.0,0.0,0.0,4.51264308081e-05,0.0,0.0,0.0,5.27086254941e-05,0.574019908905,-3.67459607124,1.06323993206,0.01,0.0,0.0,0.0,0.01,0.0,0.0,0.0,0.01,-4.5035572052,1.24415743351,8.99251651764,0.01,0.0,0.0,0.0,0.01,0.0,0.0,0.0,0.01
1622095925228550711,300,1622095925227997976,foot_imu_link,0.991669297218,0.0068326308392,0.0410408191383,-0.121905907989,5.8536505074e-05,0.0,0.0,0.0,4.51611222849e-05,0.0,0.0,0.0,5.27509607178e-05,0.566937327385,-3.7256257534,1.13518869877,0.01,0.0,0.0,0.0,0.01,0.0,0.0,0.0,0.01,-4.03287887573,1.27824282646,8.53297233582,0.01,0.0,0.0,0.0,0.01,0.0,0.0,0.0,0.01
1622095925229251517,301,1622095925228893019,foot_imu_link,0.991815149784,0.00499557889998,0.0314187481999,-0.123655863106,5.85721149383e-05,0.0,0.0,0.0,4.51958259526e-05,0.0,0.0,0.0,5.27933040689e-05,0.682978570461,-3.72422933578,1.22666764259,0.01,0.0,0.0,0.0,0.01,0.0,0.0,0.0,0.01,-3.90032672882,0.780672430992,8.12980365753,0.01,0.0,0.0,0.0,0.01,0.0,0.0,0.0,0.01
1622095925237750678,302,1622095925237187328,foot_imu_link,0.991838872433,0.00295745581388,0.0217776056379,-0.125589713454,5.86077654392e-05,0.0,0.0,0.0,4.52305296204e-05,0.0,0.0,0.0,5.28356880566e-05,0.75980079174,-3.72057747841,1.30993580818,0.01,0.0,0.0,0.0,0.01,0.0,0.0,0.0,0.01,-3.84814405441,0.838148474693,8.11691188812,0.01,0.0,0.0,0.0,0.01,0.0,0.0,0.0,0.01
1622095925246017499,303,1622095925245493589,foot_imu_link,0.991734623909,0.000663661805447,0.0120865786448,-0.127733796835,5.86434362583e-05,0.0,0.0,0.0,4.52652536065e-05,0.0,0.0,0.0,5.28780598533e-05,0.846838712692,-3.72404742241,1.41445529461,0.01,0.0,0.0,0.0,0.01,0.0,0.0,0.0,0.01,-3.37862253189,0.488747954369,7.94849586487,0.01,0.0,0.0,0.0,0.01,0.0,0.0,0.0,0.01
1622095925247598733,304,1622095925246515128,foot_imu_link,0.991480410099,-0.00184287515003,0.00242062471807,-0.130220457911,5.86791639687e-05,0.0,0.0,0.0,4.53000141655e-05,0.0,0.0,0.0,5.29204844776e-05,0.990526735783,-3.70681762695,1.50102162361,0.01,0.0,0.0,0.0,0.01,0.0,0.0,0.0,0.01,-3.26487731934,0.177518904209,7.68536329269,0.01,0.0,0.0,0.0,0.01,0.0,0.0,0.0,0.01
1622095925253640190,305,1622095925253055273,foot_imu_link,0.991089046001,-0.00464779231697,-0.00730119505897,-0.132920026779,5.87148632335e-05,0.0,0.0,0.0,4.53347218969e-05,0.0,0.0,0.0,5.2962848147e-05,1.08116996288,-3.71119332314,1.62184381485,0.01,0.0,0.0,0.0,0.01,0.0,0.0,0.0,0.01,-2.97306990623,-0.186424612999,7.61169290543,0.01,0.0,0.0,0.0,0.01,0.0,0.0,0.0,0.01
1622095925254338657,306,1622095925253882407,foot_imu_link,0.990540385246,-0.0076327547431,-0.0170924291015,-0.135939076543,5.87506193896e-05,0.0,0.0,0.0,4.53694743287e-05,0.0,0.0,0.0,5.30052199437e-05,1.216796875,-3.73103690147,1.69640374184,0.01,0.0,0.0,0.0,0.01,0.0,0.0,0.0,0.01,-2.43682932854,-0.547344624996,7.22271537781,0.01,0.0,0.0,0.0,0.01,0.0,0.0,0.0,0.01
1622095925262625746,307,1622095925262076070,foot_imu_link,0.989848196507,-0.0108302133158,-0.0267857927829,-0.139161258936,5.8786395864e-05,0.0,0.0,0.0,4.54042348877e-05,0.0,0.0,0.0,5.30475673584e-05,1.30677783489,-3.68146538734,1.774107337,0.01,0.0,0.0,0.0,0.01,0.0,0.0,0.0,0.01,-2.24887466431,-0.917625188828,6.82338571548,0.01,0.0,0.0,0.0,0.01,0.0,0.0,0.0,0.01
1622095925271132975,308,1622095925270524978,foot_imu_link,0.98896586895,-0.0141770699993,-0.0364243835211,-0.142894521356,5.8822164211e-05,0.0,0.0,0.0,4.54389832557e-05,0.0,0.0,0.0,5.30898944548e-05,1.52111887932,-3.65506577492,1.82509040833,0.01,0.0,0.0,0.0,0.01,0.0,0.0,0.0,0.01,-1.91542589664,-1.3557254076,6.24156475067,0.01,0.0,0.0,0.0,0.01,0.0,0.0,0.0,0.01
1622095925271961581,309,1622095925271507018,foot_imu_link,0.98796159029,-0.0176123809069,-0.0459895990789,-0.146651759744,5.88579894493e-05,0.0,0.0,0.0,4.54737844514e-05,0.0,0.0,0.0,5.31322215512e-05,1.53983390331,-3.62414956093,1.8574244976,0.01,0.0,0.0,0.0,0.01,0.0,0.0,0.0,0.01,-1.44987344742,-1.58485412598,6.43841743469,0.01,0.0,0.0,0.0,0.01,0.0,0.0,0.0,0.01
1622095925278769059,310,1622095925277704257,foot_imu_link,0.986861526966,-0.0210436582565,-0.0554610602558,-0.150284707546,5.8893774051e-05,0.0,0.0,0.0,4.55085572014e-05,0.0,0.0,0.0,5.31744470561e-05,1.496327281,-3.58703446388,1.85204577446,0.01,0.0,0.0,0.0,0.01,0.0,0.0,0.0,0.01,-0.935146450996,-2.00377488136,6.34815406799,0.01,0.0,0.0,0.0,0.01,0.0,0.0,0.0,0.01
1622095925279288617,311,1622095925278774557,foot_imu_link,0.985632717609,-0.0243788119406,-0.0648790001869,-0.154027804732,5.8929578971e-05,0.0,0.0,0.0,4.55433665243e-05,0.0,0.0,0.0,5.32166684974e-05,1.54624044895,-3.57606863976,1.81005132198,0.01,0.0,0.0,0.0,0.01,0.0,0.0,0.0,0.01,-0.645613372326,-2.2337782383,5.92061042786,0.01,0.0,0.0,0.0,0.01,0.0,0.0,0.0,0.01
1622095925287055173,312,1622095925286624835,foot_imu_link,0.984324157238,-0.0275867842138,-0.0742033347487,-0.157603308558,5.89654001456e-05,0.0,0.0,0.0,4.55781717836e-05,0.0,0.0,0.0,5.325882492e-05,1.48297393322,-3.54809498787,1.75973498821,0.01,0.0,0.0,0.0,0.01,0.0,0.0,0.0,0.01,-0.30643838644,-2.36228609085,5.6428861618,0.01,0.0,0.0,0.0,0.01,0.0,0.0,0.0,0.01
1622095925295826825,313,1622095925295194501,foot_imu_link,0.982942819595,-0.0305620096624,-0.0834834128618,-0.160996839404,5.90012010019e-05,0.0,0.0,0.0,4.56130014249e-05,0.0,0.0,0.0,5.33009203878e-05,1.40913462639,-3.54487156868,1.6709676981,0.01,0.0,0.0,0.0,0.01,0.0,0.0,0.0,0.01,-0.193593367934,-2.77861952782,5.4065580368,0.01,0.0,0.0,0.0,0.01,0.0,0.0,0.0,0.01
1622095925296512070,314,1622095925296093648,foot_imu_link,0.981546878815,-0.0331397801638,-0.0925875380635,-0.1639970541,5.90369977946e-05,0.0,0.0,0.0,4.56478148115e-05,0.0,0.0,0.0,5.33429670916e-05,1.24441456795,-3.49679303169,1.51694786549,0.01,0.0,0.0,0.0,0.01,0.0,0.0,0.0,0.01,0.478705883026,-2.82957816124,5.14179754257,0.01,0.0,0.0,0.0,0.01,0.0,0.0,0.0,0.01
1622095925303081537,315,1622095925302573691,foot_imu_link,0.98014652729,-0.0353455916047,-0.101547956467,-0.166587755084,5.90727905236e-05,0.0,0.0,0.0,4.56826769621e-05,0.0,0.0,0.0,5.33849447131e-05,1.07182276249,-3.45973825455,1.37628507614,0.01,0.0,0.0,0.0,0.01,0.0,0.0,0.0,0.01,0.672433018684,-3.09390759468,5.02418804169,0.01,0.0,0.0,0.0,0.01,0.0,0.0,0.0,0.01
1622095925303888068,316,1622095925303478744,foot_imu_link,0.978758692741,-0.0370294004679,-0.110439427197,-0.168711051345,5.91085954436e-05,0.0,0.0,0.0,4.57175309853e-05,0.0,0.0,0.0,5.34268695071e-05,0.867611050606,-3.45954871178,1.18577957153,0.01,0.0,0.0,0.0,0.01,0.0,0.0,0.0,0.01,1.21204268932,-3.06103372574,4.86316108704,0.01,0.0,0.0,0.0,0.01,0.0,0.0,0.0,0.01
1622095925312154819,317,1622095925311695020,foot_imu_link,0.977385103703,-0.0382578894496,-0.119202651083,-0.170427322388,5.91444247455e-05,0.0,0.0,0.0,4.57524256452e-05,0.0,0.0,0.0,5.34687252188e-05,0.689183056355,-3.43409752846,1.01684451103,0.01,0.0,0.0,0.0,0.01,0.0,0.0,0.0,0.01,1.42485153675,-3.08579683304,4.59894943237,0.01,0.0,0.0,0.0,0.01,0.0,0.0,0.0,0.01
1622095925318696138,318,1622095925318229873,foot_imu_link,0.976022958755,-0.0390048660338,-0.127823919058,-0.171810716391,5.91801768379e-05,0.0,0.0,0.0,4.57872796684e-05,0.0,0.0,0.0,5.35104955936e-05,0.537304699421,-3.40448284149,0.83425873518,0.01,0.0,0.0,0.0,0.01,0.0,0.0,0.0,0.01,1.79238796234,-3.11153554916,4.25382661819,0.01,0.0,0.0,0.0,0.01,0.0,0.0,0.0,0.01
1622095925319619530,319,1622095925319108037,foot_imu_link,0.974667787552,-0.0392814055085,-0.136285379529,-0.172933921218,5.92159817579e-05,0.0,0.0,0.0,4.58221987102e-05,0.0,0.0,0.0,5.35522212681e-05,0.41404992342,-3.37265491486,0.653394877911,0.01,0.0,0.0,0.0,0.01,0.0,0.0,0.0,0.01,2.11714458466,-3.16904640198,4.10268831253,0.01,0.0,0.0,0.0,0.01,0.0,0.0,0.0,0.01
1622095925328032920,320,1622095925327514387,foot_imu_link,0.973306119442,-0.039080414921,-0.144595712423,-0.173896685243,5.9251701341e-05,0.0,0.0,0.0,4.58570649245e-05,0.0,0.0,0.0,5.35938290965e-05,0.328146934509,-3.34394168854,0.465425610542,0.01,0.0,0.0,0.0,0.01,0.0,0.0,0.0,0.01,2.48225402832,-3.06511187553,3.98821401596,0.01,0.0,0.0,0.0,0.01,0.0,0.0,0.0,0.01
1622095925328648457,321,1622095925328266434,foot_imu_link,0.971948027611,-0.0383560396731,-0.152744993567,-0.174685299397,5.92874900064e-05,0.0,0.0,0.0,4.58920002209e-05,0.0,0.0,0.0,5.36354044156e-05,0.232214167714,-3.3133289814,0.260367691517,0.01,0.0,0.0,0.0,0.01,0.0,0.0,0.0,0.01,2.78578257561,-2.9366645813,3.55294394493,0.01,0.0,0.0,0.0,0.01,0.0,0.0,0.0,0.01
1622095925337076933,322,1622095925336531784,foot_imu_link,0.970600664616,-0.0371602363884,-0.16056214273,-0.175423324108,5.93232014622e-05,0.0,0.0,0.0,4.59268948808e-05,0.0,0.0,0.0,5.36768984614e-05,0.188210248947,-3.21642804146,0.0567009188235,0.01,0.0,0.0,0.0,0.01,0.0,0.0,0.0,0.01,3.19298267365,-2.75723361969,3.0485253334,0.01,0.0,0.0,0.0,0.01,0.0,0.0,0.0,0.01
1622095925343754913,323,1622095925343160274,foot_imu_link,0.96926099062,-0.0355526916683,-0.168059632182,-0.176139727235,5.93589982548e-05,0.0,0.0,0.0,4.59618586229e-05,0.0,0.0,0.0,5.37183437434e-05,0.157578498125,-3.12032341957,-0.124104969203,0.01,0.0,0.0,0.0,0.01,0.0,0.0,0.0,0.01,3.37168550491,-2.61058521271,2.9824461937,0.01,0.0,0.0,0.0,0.01,0.0,0.0,0.0,0.01
1622095925344546169,324,1622095925344089978,foot_imu_link,0.967949807644,-0.0336297824979,-0.175197541714,-0.176771476865,5.93947056469e-05,0.0,0.0,0.0,4.5996785792e-05,0.0,0.0,0.0,5.37596955611e-05,0.106685645878,-3.00065970421,-0.266582161188,0.01,0.0,0.0,0.0,0.01,0.0,0.0,0.0,0.01,3.7083568573,-2.1648235321,2.6073346138,0.01,0.0,0.0,0.0,0.01,0.0,0.0,0.0,0.01
1622095925352511379,325,1622095925352082481,foot_imu_link,0.966659009457,-0.0314061008394,-0.181934803724,-0.177436947823,5.94304536757e-05,0.0,0.0,0.0,4.60317739161e-05,0.0,0.0,0.0,5.38009661056e-05,0.102482154965,-2.86517834663,-0.41387078166,0.01,0.0,0.0,0.0,0.01,0.0,0.0,0.0,0.01,3.5773639679,-2.04396486282,2.50872802734,0.01,0.0,0.0,0.0,0.01,0.0,0.0,0.0,0.01
1622095925361276116,326,1622095925360650528,foot_imu_link,0.965438783169,-0.0287958346307,-0.188331961632,-0.177847653627,5.94661244948e-05,0.0,0.0,0.0,4.60667295309e-05,0.0,0.0,0.0,5.38421838224e-05,-0.0247182175517,-2.75229358673,-0.569633543491,0.01,0.0,0.0,0.0,0.01,0.0,0.0,0.0,0.01,3.60721254349,-1.61993789673,2.57061815262,0.01,0.0,0.0,0.0,0.01,0.0,0.0,0.0,0.01
